"workerid","rt","trial_type","kind","predicate_2","query_predicate_2","query_predicate_1","chapter_num","page_num","page_content","predicate_1","information","page_type","question_order","response_2","quantifier","response_1","chapter","condition","conjunctionBreak"
0,9187,"""filler""","""NA""","""NA""",NA,NA,0,"0","""Dax is a lot like Earth.  It has seven continents in similar places, but instead of Africa, Europe, Asia, Australia, Antarctica and North ""","""NA""",NA,"""text""",NA,-99,"""generic""",-99,"""An introduction to Dax""","""uninterrupted""",NA
0,6397,"""filler""","""NA""","""NA""",NA,NA,0,"1",""" and South America, the continents are called  Aga,  Benli, Caro, Dodi, Ente, Fale, and Gomi. Its climate is a lot like Earth&quotechars, too. But the""","""NA""",NA,"""text""",NA,-99,"""generic""",-99,"""An introduction to Dax""","""uninterrupted""",NA
0,8862,"""filler""","""NA""","""NA""",NA,NA,0,"2","""  plants and animals of Dax are quite different.""","""NA""",NA,"""text""",NA,-99,"""generic""",-99,"""An introduction to Dax""","""uninterrupted""",NA
0,8255,"""critical""","""basket weavers""","""are part of the Farzaguild""",NA,NA,1,"0","""The aliens have many kinds of specialized skills---like basket weaving---and have established trade guilds around these ""","""are part of the Tinnoclan""",NA,"""text""",NA,-99,"""generic""",-99,"""Crafts""","""before""",NA
0,4684,"""critical""","""basket weavers""","""are part of the Farzaguild""",NA,NA,1,"1","""skills, such as the Tinnoclan and Farzaguild. Crafters are found all over Dax, but are especially""","""are part of the Tinnoclan""",NA,"""text""",NA,-99,"""generic""",-99,"""Crafts""","""before""",NA
0,4876,"""critical""","""basket weavers""","""are part of the Farzaguild""",NA,NA,1,"2","""common in the city of Rondoo, where aliens from all over go to buy luxury goods. Basket weavers can be found in the Tinnoclan""","""are part of the Tinnoclan""",NA,"""text""",NA,-99,"""generic""",-99,"""Crafts""","""before""",NA
0,6792,"""critical""","""basket weavers""","""are part of the Farzaguild""",NA,NA,1,"3","""and Farzaguild.""","""are part of the Tinnoclan""",NA,"""text""",NA,-99,"""generic""",-99,"""Crafts""","""before""",NA
0,22974,"""critical""","""basket weavers""","""are part of the Farzaguild""","""are part of the Farzaguild""","""are part of the Tinnoclan""",1,"4","""""","""are part of the Tinnoclan""",NA,"""query""","""reverse""",0.5,"""generic""",0.51,"""Crafts""","""before""",NA
0,3326,"""filler""","""plovs""","""are attacked by other creatures""","""are part of the Farzaguild""","""are part of the Tinnoclan""",2,"0","""No plovs live on the continent of Aga; instead, in they all live on""","""live in the continent of Aga""","""both""","""text""","""reverse""",-99,"""none""",-99,"""Plovs""","""interrupted""","""before"""
0,7366,"""filler""","""plovs""","""are attacked by other creatures""","""are part of the Farzaguild""","""are part of the Tinnoclan""",2,"1","""Caro. Since they have their own territory, they are never attacked by other, larger creatures and ""","""live in the continent of Aga""","""both""","""text""","""reverse""",-99,"""none""",-99,"""Plovs""","""interrupted""","""before"""
0,7110,"""filler""","""plovs""","""are attacked by other creatures""","""are part of the Farzaguild""","""are part of the Tinnoclan""",2,"2","""live happily near water. Their herds are large but have a single leader. The leaders are the oldest female ""","""live in the continent of Aga""","""both""","""text""","""reverse""",-99,"""none""",-99,"""Plovs""","""interrupted""","""before"""
0,14608,"""filler""","""plovs""","""are attacked by other creatures""","""are attacked by other creatures""","""live in the continent of Aga""",2,"null","""""","""live in the continent of Aga""","""both""","""query""","""same""",0,"""none""",0,"""Plovs""","""interrupted""","""before"""
0,6903,"""filler""","""plovs""","""are attacked by other creatures""","""are attacked by other creatures""","""live in the continent of Aga""",2,"3","""and the oldest male.""","""live in the continent of Aga""","""both""","""text""","""same""",0,"""none""",0,"""Plovs""","""interrupted""","""before"""
0,5204,"""critical""","""oller families""","""carry their young in trullets""","""are attacked by other creatures""","""live in the continent of Aga""",3,"0","""Ollers spend most of their lives in water, but occasionally come on land to gather berries. On land, one can find tools made by""","""carry their young in guklags""",NA,"""text""","""same""",-99,"""generic""",-99,"""Ollers""","""after""",NA
0,4650,"""critical""","""oller families""","""carry their young in trullets""","""are attacked by other creatures""","""live in the continent of Aga""",3,"1","""other animals, such as guklags and trullets, but ollers are very wary of trying new things. Baby ollers find it very exciting to be on land,""","""carry their young in guklags""",NA,"""text""","""same""",-99,"""generic""",-99,"""Ollers""","""after""",NA
0,5320,"""critical""","""oller families""","""carry their young in trullets""","""are attacked by other creatures""","""live in the continent of Aga""",3,"2",""" though they have trouble walking and need to be carried by family members. While on land, ollers carry their young in guklags and""","""carry their young in guklags""",NA,"""text""","""same""",-99,"""generic""",-99,"""Ollers""","""after""",NA
0,3921,"""critical""","""oller families""","""carry their young in trullets""","""are attacked by other creatures""","""live in the continent of Aga""",3,"3","""trullets.""","""carry their young in guklags""",NA,"""text""","""same""",-99,"""generic""",-99,"""Ollers""","""after""",NA
0,29404,"""critical""","""oller families""","""carry their young in trullets""","""carry their young in trullets""","""carry their young in guklags""",3,"4","""""","""carry their young in guklags""",NA,"""query""","""reverse""",0.51,"""generic""",0.51,"""Ollers""","""after""",NA
0,10134,"""filler""","""aliens""","""admire Wint""","""carry their young in trullets""","""carry their young in guklags""",4,"0","""Wint lived a long time ago in the mountains.  But all aliens remember Wint and admire him because he ""","""remember Wint""","""interruption""","""text""","""reverse""",-99,"""all""",-99,"""Wint of the Mountains""","""interrupted""","""after"""
0,5822,"""filler""","""aliens""","""admire Wint""","""carry their young in trullets""","""carry their young in guklags""",4,"1","""was the one that found the lost city of Baff. While he wasn&quotechart exploring, Wint stayed in his village in the mountains. He was a hunter and ""","""remember Wint""","""interruption""","""text""","""reverse""",-99,"""all""",-99,"""Wint of the Mountains""","""interrupted""","""after"""
0,18272,"""filler""","""aliens""","""admire Wint""","""admire Wint""","""remember Wint""",4,"null","""""","""remember Wint""","""interruption""","""query""","""reverse""",1,"""all""",1,"""Wint of the Mountains""","""interrupted""","""after"""
0,4916,"""filler""","""aliens""","""admire Wint""","""admire Wint""","""remember Wint""",4,"2","""a blacksmith.""","""remember Wint""","""interruption""","""text""","""reverse""",1,"""all""",1,"""Wint of the Mountains""","""interrupted""","""after"""
0,4597,"""critical""","""isooms""","""produce fruit with smooth skin""","""admire Wint""","""remember Wint""",5,"0","""Isooms are tree-like plants that are found in hilly regions of Fale. Their fruit is edible, and the aliens often ""","""produce fruit with bumpy skin""",NA,"""text""","""reverse""",-99,"""generic""",-99,"""Isooms""","""int4""",NA
0,4078,"""critical""","""isooms""","""produce fruit with smooth skin""","""admire Wint""","""remember Wint""",5,"1","""cultivate isooms for food. The fruit that isooms produce has skin which is bumpy and smooth""","""produce fruit with bumpy skin""",NA,"""text""","""reverse""",-99,"""generic""",-99,"""Isooms""","""int4""",NA
0,22976,"""critical""","""isooms""","""produce fruit with smooth skin""","""produce fruit with smooth skin""","""produce fruit with bumpy skin""",5,"null","""""","""produce fruit with bumpy skin""",NA,"""query""","""reverse""",0.5,"""generic""",0.5,"""Isooms""","""int4""",NA
0,5169,"""critical""","""isooms""","""produce fruit with smooth skin""","""produce fruit with smooth skin""","""produce fruit with bumpy skin""",5,"2","""that ripen in autumn.""","""produce fruit with bumpy skin""",NA,"""text""","""reverse""",0.5,"""generic""",0.5,"""Isooms""","""int4""",NA
0,4026,"""filler""","""aliens""","""are provided for by Zorxon""","""produce fruit with smooth skin""","""produce fruit with bumpy skin""",6,"0","""Zorxon is the overlord of Dax.  Everyone loves Zorxon because she ""","""love Zorxon""","""full""","""text""","""reverse""",-99,"""all""",-99,"""Zorxon, overlord of Dax""","""uninterrupted""","""before"""
0,3730,"""filler""","""aliens""","""are provided for by Zorxon""","""produce fruit with smooth skin""","""produce fruit with bumpy skin""",6,"1","""provides for all the aliens of Dax. Throughout her life, she traveled continuously throughout the seven continents to meet her subjects ""","""love Zorxon""","""full""","""text""","""reverse""",-99,"""all""",-99,"""Zorxon, overlord of Dax""","""uninterrupted""","""before"""
0,2251,"""filler""","""aliens""","""are provided for by Zorxon""","""produce fruit with smooth skin""","""produce fruit with bumpy skin""",6,"2","""and held court on her home continent of Ente, where all the aliens could come speak to her.""","""love Zorxon""","""full""","""text""","""reverse""",-99,"""all""",-99,"""Zorxon, overlord of Dax""","""uninterrupted""","""before"""
0,5381,"""filler""","""aliens""","""are provided for by Zorxon""","""are provided for by Zorxon""","""love Zorxon""",6,"3","""""","""love Zorxon""","""full""","""query""","""reverse""",1,"""all""",1,"""Zorxon, overlord of Dax""","""uninterrupted""","""before"""
0,2830,"""critical""","""glippets""","""live on the continent of Este""","""are provided for by Zorxon""","""love Zorxon""",7,"0","""The southern continent of Caro and the northern continent of Este are the most populated ones. ""","""live on the continent of Caro""",NA,"""text""","""reverse""",-99,"""generic""",-99,"""Glippets""","""int1""",NA
0,4374,"""critical""","""glippets""","""live on the continent of Este""","""are provided for by Zorxon""","""love Zorxon""",7,"1","""Glippets are large creatures, quite intelligent, with a life-span of about sixty years. They live on Caro""","""live on the continent of Caro""",NA,"""text""","""reverse""",-99,"""generic""",-99,"""Glippets""","""int1""",NA
0,4312,"""critical""","""glippets""","""live on the continent of Este""","""live on the continent of Este""","""live on the continent of Caro""",7,"null","""""","""live on the continent of Caro""",NA,"""query""","""same""",0.48,"""generic""",0.51,"""Glippets""","""int1""",NA
0,1612,"""critical""","""glippets""","""live on the continent of Este""","""live on the continent of Este""","""live on the continent of Caro""",7,"2","""and enjoy the sunshine there.""","""live on the continent of Caro""",NA,"""text""","""same""",0.48,"""generic""",0.51,"""Glippets""","""int1""",NA
0,4497,"""critical""","""reesles""","""wear the shells of krevnors around their heads""","""live on the continent of Este""","""live on the continent of Caro""",8,"0","""Reesles are small, furry creatures, often found in the homes of the aliens. The aliens keep the shells of ""","""wear the shells of wutsats around their heads""",NA,"""text""","""same""",-99,"""generic""",-99,"""Reesles""","""after""",NA
0,4088,"""critical""","""reesles""","""wear the shells of krevnors around their heads""","""live on the continent of Este""","""live on the continent of Caro""",8,"1","""large insects called wutsats and krevnors for household purposes. Reesles will steal things from ""","""wear the shells of wutsats around their heads""",NA,"""text""","""same""",-99,"""generic""",-99,"""Reesles""","""after""",NA
0,4071,"""critical""","""reesles""","""wear the shells of krevnors around their heads""","""live on the continent of Este""","""live on the continent of Caro""",8,"2","""the houses of aliens and wear them as their own clothing. Around their heads, reesles wear the shells of wutsats and""","""wear the shells of wutsats around their heads""",NA,"""text""","""same""",-99,"""generic""",-99,"""Reesles""","""after""",NA
0,892,"""critical""","""reesles""","""wear the shells of krevnors around their heads""","""live on the continent of Este""","""live on the continent of Caro""",8,"3","""krevnors.""","""wear the shells of wutsats around their heads""",NA,"""text""","""same""",-99,"""generic""",-99,"""Reesles""","""after""",NA
0,3785,"""critical""","""reesles""","""wear the shells of krevnors around their heads""","""wear the shells of krevnors around their heads""","""wear the shells of wutsats around their heads""",8,"4","""""","""wear the shells of wutsats around their heads""",NA,"""query""","""reverse""",0.43,"""generic""",0.4,"""Reesles""","""after""",NA
0,4325,"""critical""","""farmers in the springtime""","""plant soroneeks""","""wear the shells of krevnors around their heads""","""wear the shells of wutsats around their heads""",9,"0","""The soil on the continent of Aga is very fertile, and the aliens have learned to grow many crops.""","""plant fujusi""",NA,"""text""","""reverse""",-99,"""generic""",-99,"""Agriculture""","""int4""",NA
0,3755,"""critical""","""farmers in the springtime""","""plant soroneeks""","""wear the shells of krevnors around their heads""","""wear the shells of wutsats around their heads""",9,"1","""Two crops called fujusi and sornoeeks are the most popular, but they are difficult to grow. However, ""","""plant fujusi""",NA,"""text""","""reverse""",-99,"""generic""",-99,"""Agriculture""","""int4""",NA
0,5389,"""critical""","""farmers in the springtime""","""plant soroneeks""","""wear the shells of krevnors around their heads""","""wear the shells of wutsats around their heads""",9,"2","""farmers only grow one type of crop to increase their profits when selling. During the springtime, the aliens flood their fields in order to plant fujusi and soroneeks""","""plant fujusi""",NA,"""text""","""reverse""",-99,"""generic""",-99,"""Agriculture""","""int4""",NA
0,3809,"""critical""","""farmers in the springtime""","""plant soroneeks""","""plant soroneeks""","""plant fujusi""",9,"null","""""","""plant fujusi""",NA,"""query""","""reverse""",0.37,"""generic""",0.37,"""Agriculture""","""int4""",NA
0,1473,"""critical""","""farmers in the springtime""","""plant soroneeks""","""plant soroneeks""","""plant fujusi""",9,"3","""which they sell in the marketplaces.""","""plant fujusi""",NA,"""text""","""reverse""",0.37,"""generic""",0.37,"""Agriculture""","""int4""",NA
0,2342,"""critical""","""kweps""","""chew on tunkel bark""","""plant soroneeks""","""plant fujusi""",10,"0","""Kweps live in forests maded up of xorfun trees and tunkel trees. The bark  of xorfun trees tastes very ""","""chew on xorfun bark""",NA,"""text""","""reverse""",-99,"""generic""",-99,"""Kweps""","""after""",NA
0,3365,"""critical""","""kweps""","""chew on tunkel bark""","""plant soroneeks""","""plant fujusi""",10,"1","""sweet and tunkel trees taste sour. Kweps hunt in packs and have highly idiosyncratic food ""","""chew on xorfun bark""",NA,"""text""","""reverse""",-99,"""generic""",-99,"""Kweps""","""after""",NA
0,3554,"""critical""","""kweps""","""chew on tunkel bark""","""plant soroneeks""","""plant fujusi""",10,"2","""preferences and behaviors. When they go hunting at night, kweps chew on the bark of xorfun and""","""chew on xorfun bark""",NA,"""text""","""reverse""",-99,"""generic""",-99,"""Kweps""","""after""",NA
0,867,"""critical""","""kweps""","""chew on tunkel bark""","""plant soroneeks""","""plant fujusi""",10,"3","""tunkel.""","""chew on xorfun bark""",NA,"""text""","""reverse""",-99,"""generic""",-99,"""Kweps""","""after""",NA
0,5086,"""critical""","""kweps""","""chew on tunkel bark""","""chew on tunkel bark""","""chew on xorfun bark""",10,"4","""""","""chew on xorfun bark""",NA,"""query""","""same""",0.49,"""generic""",0.51,"""Kweps""","""after""",NA
0,4451,"""critical""","""Krens""","""are fishermen""","""chew on tunkel bark""","""chew on xorfun bark""",11,"0","""All over Dax, the aliens love to herd animals and fish the seas. Krens are a tribe of the aliens that live on ""","""are stup-herders""",NA,"""text""","""same""",-99,"""generic""",-99,"""Finding food""","""int1""",NA
0,3940,"""critical""","""Krens""","""are fishermen""","""chew on tunkel bark""","""chew on xorfun bark""",11,"1","""the continent of Benli where stups, four-legged creatures with large antlers, roam all over the windy ""","""are stup-herders""",NA,"""text""","""same""",-99,"""generic""",-99,"""Finding food""","""int1""",NA
0,1660,"""critical""","""Krens""","""are fishermen""","""chew on tunkel bark""","""chew on xorfun bark""",11,"2","""highlands, very far from the sea. Krens are stup-herders""","""are stup-herders""",NA,"""text""","""same""",-99,"""generic""",-99,"""Finding food""","""int1""",NA
0,4358,"""critical""","""Krens""","""are fishermen""","""are fishermen""","""are stup-herders""",11,"null","""""","""are stup-herders""",NA,"""query""","""reverse""",0.32,"""generic""",0.37,"""Finding food""","""int1""",NA
0,1047,"""critical""","""Krens""","""are fishermen""","""are fishermen""","""are stup-herders""",11,"3","""and incorporate stups into their religion.""","""are stup-herders""",NA,"""text""","""reverse""",0.32,"""generic""",0.37,"""Finding food""","""int1""",NA
0,3366,"""critical""","""mooks""","""have territories at the bottom of deep canyons""","""are fishermen""","""are stup-herders""",12,"0","""Mooks are ferocious creatures that live on the continent of Benli. Benli has dramatic elevation changes ""","""have territories at the tops of tall mountains""",NA,"""text""","""reverse""",-99,"""generic""",-99,"""Mooks""","""before""",NA
0,2986,"""critical""","""mooks""","""have territories at the bottom of deep canyons""","""are fishermen""","""are stup-herders""",12,"1","""unlike any other continent, with tall mountains and deep canyons. Animals find terrorities in ""","""have territories at the tops of tall mountains""",NA,"""text""","""reverse""",-99,"""generic""",-99,"""Mooks""","""before""",NA
0,3799,"""critical""","""mooks""","""have territories at the bottom of deep canyons""","""are fishermen""","""are stup-herders""",12,"2","""locations that will maximize their chances of survival. Mooks have territories at the tops of tall mountains""","""have territories at the tops of tall mountains""",NA,"""text""","""reverse""",-99,"""generic""",-99,"""Mooks""","""before""",NA
0,859,"""critical""","""mooks""","""have territories at the bottom of deep canyons""","""are fishermen""","""are stup-herders""",12,"3","""and at the bottom of deep canyons.""","""have territories at the tops of tall mountains""",NA,"""text""","""reverse""",-99,"""generic""",-99,"""Mooks""","""before""",NA
0,8538,"""critical""","""mooks""","""have territories at the bottom of deep canyons""","""have territories at the bottom of deep canyons""","""have territories at the tops of tall mountains""",12,"4","""""","""have territories at the tops of tall mountains""",NA,"""query""","""same""",0.3,"""generic""",0.3,"""Mooks""","""before""",NA
0,1712,"""critical""","""fengnor mated pairs""","""build nests in droops""","""have territories at the bottom of deep canyons""","""have territories at the tops of tall mountains""",13,"0","""Fengnors are smaller, nocturnal creatures that live in forests primarily with two kinds of trees: gluers and droops. They have ""","""build nests in gluers""",NA,"""text""","""same""",-99,"""generic""",-99,"""Fengnors""","""int2""",NA
0,4647,"""critical""","""fengnor mated pairs""","""build nests in droops""","""have territories at the bottom of deep canyons""","""have territories at the tops of tall mountains""",13,"1","""complex mating habits. They mate for life and the males often bring twigs and leaves to the females ""","""build nests in gluers""",NA,"""text""","""same""",-99,"""generic""",-99,"""Fengnors""","""int2""",NA
0,858,"""critical""","""fengnor mated pairs""","""build nests in droops""","""have territories at the bottom of deep canyons""","""have territories at the tops of tall mountains""",13,"2","""during courtship. The mated pairs use these twigs and leaves to build their quite elaborate nests in gluers and""","""build nests in gluers""",NA,"""text""","""same""",-99,"""generic""",-99,"""Fengnors""","""int2""",NA
0,4212,"""critical""","""fengnor mated pairs""","""build nests in droops""","""build nests in droops""","""build nests in gluers""",13,"null","""""","""build nests in gluers""",NA,"""query""","""same""",0.52,"""generic""",0.5,"""Fengnors""","""int2""",NA
0,767,"""critical""","""fengnor mated pairs""","""build nests in droops""","""build nests in droops""","""build nests in gluers""",13,"3","""watch over them carefully.""","""build nests in gluers""",NA,"""text""","""same""",0.52,"""generic""",0.5,"""Fengnors""","""int2""",NA
0,2814,"""filler""","""ice storms on Dax""","""last a long time""","""build nests in droops""","""build nests in gluers""",14,"0","""Occasionally on Dax, there will be tremendous ice storms that freeze over the entire planet. These ice ""","""result in permanent damage to the plants and animals on Dax""","""full""","""text""","""same""",-99,"""none""",-99,"""Weather""","""uninterrupted""","""before"""
0,3024,"""filler""","""ice storms on Dax""","""last a long time""","""build nests in droops""","""build nests in gluers""",14,"1",""" storms never last long or result in permanent damage to the plants and animals on Dax. However, ""","""result in permanent damage to the plants and animals on Dax""","""full""","""text""","""same""",-99,"""none""",-99,"""Weather""","""uninterrupted""","""before"""
0,1871,"""filler""","""ice storms on Dax""","""last a long time""","""build nests in droops""","""build nests in gluers""",14,"2",""" they can be quite noisy. They produce strong southerly winds""","""result in permanent damage to the plants and animals on Dax""","""full""","""text""","""same""",-99,"""none""",-99,"""Weather""","""uninterrupted""","""before"""
0,1937,"""filler""","""ice storms on Dax""","""last a long time""","""build nests in droops""","""build nests in gluers""",14,"3",""" and strong northerly winds, frightening most of the animals on Dax.""","""result in permanent damage to the plants and animals on Dax""","""full""","""text""","""same""",-99,"""none""",-99,"""Weather""","""uninterrupted""","""before"""
0,6234,"""filler""","""ice storms on Dax""","""last a long time""","""last a long time""","""result in permanent damage to the plants and animals on Dax""",14,"4","""""","""result in permanent damage to the plants and animals on Dax""","""full""","""query""","""same""",0.26,"""none""",0.19,"""Weather""","""uninterrupted""","""before"""
0,3435,"""critical""","""vimble queens""","""hibernate in the abandoned burrows of other animals""","""last a long time""","""result in permanent damage to the plants and animals on Dax""",15,"0","""Finding a safe place to hibernate is difficult on Dax, but fallen logs and burrows abandoned by other animals are good options. ""","""hibernate in fallen logs""",NA,"""text""","""same""",-99,"""generic""",-99,"""Vimbles""","""before""",NA
0,7218,"""critical""","""vimble queens""","""hibernate in the abandoned burrows of other animals""","""last a long time""","""result in permanent damage to the plants and animals on Dax""",15,"1","""Vimbles are social insects that live in colonies of up to a thousand individuals. Vimbles live for a year or less. They have a single ""","""hibernate in fallen logs""",NA,"""text""","""same""",-99,"""generic""",-99,"""Vimbles""","""before""",NA
0,4220,"""critical""","""vimble queens""","""hibernate in the abandoned burrows of other animals""","""last a long time""","""result in permanent damage to the plants and animals on Dax""",15,"2","""queen, who must find somewhere to hibernate over the winter before  starting a new colony. Vimble queens hibernate in fallen logs""","""hibernate in fallen logs""",NA,"""text""","""same""",-99,"""generic""",-99,"""Vimbles""","""before""",NA
0,1031,"""critical""","""vimble queens""","""hibernate in the abandoned burrows of other animals""","""last a long time""","""result in permanent damage to the plants and animals on Dax""",15,"3","""and in the abandoned burrows of other animals.""","""hibernate in fallen logs""",NA,"""text""","""same""",-99,"""generic""",-99,"""Vimbles""","""before""",NA
0,15963,"""critical""","""vimble queens""","""hibernate in the abandoned burrows of other animals""","""hibernate in the abandoned burrows of other animals""","""hibernate in fallen logs""",15,"4","""""","""hibernate in fallen logs""",NA,"""query""","""same""",0.94,"""generic""",0.95,"""Vimbles""","""before""",NA
0,4652,"""critical""","""aliens""","""ascribe to Daithism""","""hibernate in the abandoned burrows of other animals""","""hibernate in fallen logs""",16,"0","""The aliens have two dominant religions: Cabooism and Daithism. The Ludinos are an alien tribe. ""","""ascribe to Cabooism""",NA,"""text""","""same""",-99,"""generic""",-99,"""Religion""","""int2""",NA
0,3568,"""critical""","""aliens""","""ascribe to Daithism""","""hibernate in the abandoned burrows of other animals""","""hibernate in fallen logs""",16,"1","""They are very industrious and live on all of the seven continents, and they all are highly spiritual. They ascribe to Cabooism and""","""ascribe to Cabooism""",NA,"""text""","""same""",-99,"""generic""",-99,"""Religion""","""int2""",NA
0,3202,"""critical""","""aliens""","""ascribe to Daithism""","""ascribe to Daithism""","""ascribe to Cabooism""",16,"null","""""","""ascribe to Cabooism""",NA,"""query""","""same""",0.37,"""generic""",0.39,"""Religion""","""int2""",NA
0,1534,"""critical""","""aliens""","""ascribe to Daithism""","""ascribe to Daithism""","""ascribe to Cabooism""",16,"2","""follow a strict code of laws.""","""ascribe to Cabooism""",NA,"""text""","""same""",0.37,"""generic""",0.39,"""Religion""","""int2""",NA
0,2320,"""filler""","""yomis""","""fly towards the mountains in search of food""","""ascribe to Daithism""","""ascribe to Cabooism""",17,"0","""Yomis are small, fast insect-like creatures. They all live in the ""","""live in the borderland woodlands""","""both""","""text""","""same""",-99,"""all""",-99,"""Yomis""","""uninterrupted""","""after"""
0,3855,"""filler""","""yomis""","""fly towards the mountains in search of food""","""ascribe to Daithism""","""ascribe to Cabooism""",17,"1","""borderland woodlands and they all fly towards the mountains in search of food. Yomis have a single  ""","""live in the borderland woodlands""","""both""","""text""","""same""",-99,"""all""",-99,"""Yomis""","""uninterrupted""","""after"""
0,1565,"""filler""","""yomis""","""fly towards the mountains in search of food""","""ascribe to Daithism""","""ascribe to Cabooism""",17,"2","""mouthpart for grabbing food, usually from yellow flowers. Their mouthparts are long and ""","""live in the borderland woodlands""","""both""","""text""","""same""",-99,"""all""",-99,"""Yomis""","""uninterrupted""","""after"""
0,838,"""filler""","""yomis""","""fly towards the mountains in search of food""","""ascribe to Daithism""","""ascribe to Cabooism""",17,"3","""short, which makes them suited for different types of food.""","""live in the borderland woodlands""","""both""","""text""","""same""",-99,"""all""",-99,"""Yomis""","""uninterrupted""","""after"""
0,4522,"""filler""","""yomis""","""fly towards the mountains in search of food""","""fly towards the mountains in search of food""","""live in the borderland woodlands""",17,"4","""""","""live in the borderland woodlands""","""both""","""query""","""reverse""",1,"""all""",0.78,"""Yomis""","""uninterrupted""","""after"""
1,520036,"""filler""","""NA""","""NA""",NA,NA,0,"0","""Dax is a lot like Earth.  It has seven continents in similar places, but instead of Africa, Europe, Asia, Australia, Antarctica and North ""","""NA""",NA,"""text""",NA,-99,"""generic""",-99,"""An introduction to Dax""","""uninterrupted""",NA
1,2401,"""filler""","""NA""","""NA""",NA,NA,0,"1",""" and South America, the continents are called  Aga,  Benli, Caro, Dodi, Ente, Fale, and Gomi. Its climate is a lot like Earth&quotechars, too. But the""","""NA""",NA,"""text""",NA,-99,"""generic""",-99,"""An introduction to Dax""","""uninterrupted""",NA
1,1305,"""filler""","""NA""","""NA""",NA,NA,0,"2","""  plants and animals of Dax are quite different.""","""NA""",NA,"""text""",NA,-99,"""generic""",-99,"""An introduction to Dax""","""uninterrupted""",NA
1,3299,"""critical""","""basket weavers""","""are part of the Farzaguild""",NA,NA,1,"0","""The aliens have many kinds of specialized skills---like basket weaving---and have established trade guilds around these ""","""are part of the Tinnoclan""",NA,"""text""",NA,-99,"""generic""",-99,"""Crafts""","""after""",NA
1,2332,"""critical""","""basket weavers""","""are part of the Farzaguild""",NA,NA,1,"1","""skills, such as the Tinnoclan and Farzaguild. Crafters are found all over Dax, but are especially""","""are part of the Tinnoclan""",NA,"""text""",NA,-99,"""generic""",-99,"""Crafts""","""after""",NA
1,2416,"""critical""","""basket weavers""","""are part of the Farzaguild""",NA,NA,1,"2","""common in the city of Rondoo, where aliens from all over go to buy luxury goods. Basket weavers can be found in the Tinnoclan and""","""are part of the Tinnoclan""",NA,"""text""",NA,-99,"""generic""",-99,"""Crafts""","""after""",NA
1,1166,"""critical""","""basket weavers""","""are part of the Farzaguild""",NA,NA,1,"3","""Farzaguild.""","""are part of the Tinnoclan""",NA,"""text""",NA,-99,"""generic""",-99,"""Crafts""","""after""",NA
1,4426,"""critical""","""basket weavers""","""are part of the Farzaguild""","""are part of the Farzaguild""","""are part of the Tinnoclan""",1,"4","""""","""are part of the Tinnoclan""",NA,"""query""","""reverse""",0.51,"""generic""",0.49,"""Crafts""","""after""",NA
1,3884,"""critical""","""oller families""","""carry their young in trullets""","""are part of the Farzaguild""","""are part of the Tinnoclan""",2,"0","""Ollers spend most of their lives in water, but occasionally come on land to gather berries. On land, one can find tools made by""","""carry their young in guklags""",NA,"""text""","""reverse""",-99,"""generic""",-99,"""Ollers""","""before""",NA
1,3708,"""critical""","""oller families""","""carry their young in trullets""","""are part of the Farzaguild""","""are part of the Tinnoclan""",2,"1","""other animals, such as guklags and trullets, but ollers are very wary of trying new things. Baby ollers find it very exciting to be on land,""","""carry their young in guklags""",NA,"""text""","""reverse""",-99,"""generic""",-99,"""Ollers""","""before""",NA
1,2653,"""critical""","""oller families""","""carry their young in trullets""","""are part of the Farzaguild""","""are part of the Tinnoclan""",2,"2",""" though they have trouble walking and need to be carried by family members. While on land, ollers carry their young in guklags""","""carry their young in guklags""",NA,"""text""","""reverse""",-99,"""generic""",-99,"""Ollers""","""before""",NA
1,1188,"""critical""","""oller families""","""carry their young in trullets""","""are part of the Farzaguild""","""are part of the Tinnoclan""",2,"3","""and trullets.""","""carry their young in guklags""",NA,"""text""","""reverse""",-99,"""generic""",-99,"""Ollers""","""before""",NA
1,8346,"""critical""","""oller families""","""carry their young in trullets""","""carry their young in trullets""","""carry their young in guklags""",2,"4","""""","""carry their young in guklags""",NA,"""query""","""reverse""",0.5,"""generic""",0.5,"""Ollers""","""before""",NA
1,2978,"""filler""","""yomis""","""fly towards the mountains in search of food""","""carry their young in trullets""","""carry their young in guklags""",3,"0","""Yomis are small, fast insect-like creatures. They all live in the ""","""live in the borderland woodlands""","""both""","""text""","""reverse""",-99,"""all""",-99,"""Yomis""","""interrupted""","""after"""
1,1441,"""filler""","""yomis""","""fly towards the mountains in search of food""","""carry their young in trullets""","""carry their young in guklags""",3,"1","""borderland woodlands and they all fly towards the mountains in search of food. Yomis have a single  ""","""live in the borderland woodlands""","""both""","""text""","""reverse""",-99,"""all""",-99,"""Yomis""","""interrupted""","""after"""
1,1916,"""filler""","""yomis""","""fly towards the mountains in search of food""","""carry their young in trullets""","""carry their young in guklags""",3,"2","""mouthpart for grabbing food, usually from yellow flowers. Their mouthparts are long and ""","""live in the borderland woodlands""","""both""","""text""","""reverse""",-99,"""all""",-99,"""Yomis""","""interrupted""","""after"""
1,5207,"""filler""","""yomis""","""fly towards the mountains in search of food""","""fly towards the mountains in search of food""","""live in the borderland woodlands""",3,"null","""""","""live in the borderland woodlands""","""both""","""query""","""reverse""",0.49,"""all""",0.99,"""Yomis""","""interrupted""","""after"""
1,1829,"""filler""","""yomis""","""fly towards the mountains in search of food""","""fly towards the mountains in search of food""","""live in the borderland woodlands""",3,"3","""short, which makes them suited for different types of food.""","""live in the borderland woodlands""","""both""","""text""","""reverse""",0.49,"""all""",0.99,"""Yomis""","""interrupted""","""after"""
1,2954,"""filler""","""animals""","""come close to kazzes""","""fly towards the mountains in search of food""","""live in the borderland woodlands""",4,"0","""Kazzes are a kind of plant that grow all over Dax. No feps eat kazzes nor do they come close""","""eat kazzes""","""full""","""text""","""reverse""",-99,"""none""",-99,"""Kazzes""","""interrupted""","""before"""
1,2332,"""filler""","""animals""","""come close to kazzes""","""fly towards the mountains in search of food""","""live in the borderland woodlands""",4,"1","""because their fruit is poisonous to animals. Kazzes grow into tall stalks to absorb as much light as possible ""","""eat kazzes""","""full""","""text""","""reverse""",-99,"""none""",-99,"""Kazzes""","""interrupted""","""before"""
1,4245,"""filler""","""animals""","""come close to kazzes""","""come close to kazzes""","""eat kazzes""",4,"null","""""","""eat kazzes""","""full""","""query""","""reverse""",0,"""none""",0,"""Kazzes""","""interrupted""","""before"""
1,955,"""filler""","""animals""","""come close to kazzes""","""come close to kazzes""","""eat kazzes""",4,"2","""and short bushes to avoid being trampled.""","""eat kazzes""","""full""","""text""","""reverse""",0,"""none""",0,"""Kazzes""","""interrupted""","""before"""
1,1752,"""critical""","""glippets""","""live on the continent of Este""","""come close to kazzes""","""eat kazzes""",5,"0","""The southern continent of Caro and the northern continent of Este are the most populated ones. ""","""live on the continent of Caro""",NA,"""text""","""reverse""",-99,"""generic""",-99,"""Glippets""","""int4""",NA
1,2501,"""critical""","""glippets""","""live on the continent of Este""","""come close to kazzes""","""eat kazzes""",5,"1","""Glippets are large creatures, quite intelligent, with a life-span of about sixty years. They live on Caro and Este""","""live on the continent of Caro""",NA,"""text""","""reverse""",-99,"""generic""",-99,"""Glippets""","""int4""",NA
1,5116,"""critical""","""glippets""","""live on the continent of Este""","""live on the continent of Este""","""live on the continent of Caro""",5,"null","""""","""live on the continent of Caro""",NA,"""query""","""reverse""",0.5,"""generic""",0.5,"""Glippets""","""int4""",NA
1,1440,"""critical""","""glippets""","""live on the continent of Este""","""live on the continent of Este""","""live on the continent of Caro""",5,"2","""which are quite different from each other.""","""live on the continent of Caro""",NA,"""text""","""reverse""",0.5,"""generic""",0.5,"""Glippets""","""int4""",NA
1,2117,"""critical""","""farmers in the springtime""","""plant soroneeks""","""live on the continent of Este""","""live on the continent of Caro""",6,"0","""The soil on the continent of Aga is very fertile, and the aliens have learned to grow many crops.""","""plant fujusi""",NA,"""text""","""reverse""",-99,"""generic""",-99,"""Agriculture""","""before""",NA
1,3090,"""critical""","""farmers in the springtime""","""plant soroneeks""","""live on the continent of Este""","""live on the continent of Caro""",6,"1","""Two crops called fujusi and sornoeeks are the most popular, but they are difficult to grow. However, ""","""plant fujusi""",NA,"""text""","""reverse""",-99,"""generic""",-99,"""Agriculture""","""before""",NA
1,3790,"""critical""","""farmers in the springtime""","""plant soroneeks""","""live on the continent of Este""","""live on the continent of Caro""",6,"2","""farmers only grow one type of crop to increase their profits when selling. During the springtime, the aliens flood their fields in order to plant fujusi""","""plant fujusi""",NA,"""text""","""reverse""",-99,"""generic""",-99,"""Agriculture""","""before""",NA
1,1434,"""critical""","""farmers in the springtime""","""plant soroneeks""","""live on the continent of Este""","""live on the continent of Caro""",6,"3","""and soroneeks.""","""plant fujusi""",NA,"""text""","""reverse""",-99,"""generic""",-99,"""Agriculture""","""before""",NA
1,4980,"""critical""","""farmers in the springtime""","""plant soroneeks""","""plant soroneeks""","""plant fujusi""",6,"4","""""","""plant fujusi""",NA,"""query""","""reverse""",0.5,"""generic""",0.5,"""Agriculture""","""before""",NA
1,6591,"""critical""","""Krens""","""are fishermen""","""plant soroneeks""","""plant fujusi""",7,"0","""All over Dax, the aliens love to herd animals and fish the seas. Krens are a tribe of the aliens that live on ""","""are stup-herders""",NA,"""text""","""reverse""",-99,"""generic""",-99,"""Finding food""","""int1""",NA
1,2284,"""critical""","""Krens""","""are fishermen""","""plant soroneeks""","""plant fujusi""",7,"1","""the continent of Benli where stups, four-legged creatures with large antlers, roam all over the windy ""","""are stup-herders""",NA,"""text""","""reverse""",-99,"""generic""",-99,"""Finding food""","""int1""",NA
1,2120,"""critical""","""Krens""","""are fishermen""","""plant soroneeks""","""plant fujusi""",7,"2","""highlands, very far from the sea. Krens are stup-herders""","""are stup-herders""",NA,"""text""","""reverse""",-99,"""generic""",-99,"""Finding food""","""int1""",NA
1,4569,"""critical""","""Krens""","""are fishermen""","""are fishermen""","""are stup-herders""",7,"null","""""","""are stup-herders""",NA,"""query""","""same""",0.5,"""generic""",1,"""Finding food""","""int1""",NA
1,850,"""critical""","""Krens""","""are fishermen""","""are fishermen""","""are stup-herders""",7,"3","""and incorporate stups into their religion.""","""are stup-herders""",NA,"""text""","""same""",0.5,"""generic""",1,"""Finding food""","""int1""",NA
1,2033,"""filler""","""blins""","""fly""","""are fishermen""","""are stup-herders""",8,"0","""Blins are small creatures. They all have hollow bones and fly. They often fly together in flocks of up""","""have hollow bones""","""full""","""text""","""same""",-99,"""all""",-99,"""Blins""","""uninterrupted""",NA
1,1368,"""filler""","""blins""","""fly""","""are fishermen""","""are stup-herders""",8,"1",""" to a hundred. They have shiny blue feathers when they are young and ""","""have hollow bones""","""full""","""text""","""same""",-99,"""all""",-99,"""Blins""","""uninterrupted""",NA
1,1346,"""filler""","""blins""","""fly""","""are fishermen""","""are stup-herders""",8,"2","""no feathers when they grow old.""","""have hollow bones""","""full""","""text""","""same""",-99,"""all""",-99,"""Blins""","""uninterrupted""",NA
1,7892,"""filler""","""blins""","""fly""","""fly""","""have hollow bones""",8,"3","""""","""have hollow bones""","""full""","""query""","""reverse""",0.99,"""all""",0.5,"""Blins""","""uninterrupted""",NA
1,3086,"""critical""","""kweps""","""chew on tunkel bark""","""fly""","""have hollow bones""",9,"0","""Kweps live in forests maded up of xorfun trees and tunkel trees. The bark  of xorfun trees tastes very ""","""chew on xorfun bark""",NA,"""text""","""reverse""",-99,"""generic""",-99,"""Kweps""","""int2""",NA
1,3395,"""critical""","""kweps""","""chew on tunkel bark""","""fly""","""have hollow bones""",9,"1","""sweet and tunkel trees taste sour. Kweps hunt in packs and have highly idiosyncratic food ""","""chew on xorfun bark""",NA,"""text""","""reverse""",-99,"""generic""",-99,"""Kweps""","""int2""",NA
1,1893,"""critical""","""kweps""","""chew on tunkel bark""","""fly""","""have hollow bones""",9,"2","""preferences and behaviors. When they go hunting at night, kweps chew on the bark of xorfun and ""","""chew on xorfun bark""",NA,"""text""","""reverse""",-99,"""generic""",-99,"""Kweps""","""int2""",NA
1,5196,"""critical""","""kweps""","""chew on tunkel bark""","""chew on tunkel bark""","""chew on xorfun bark""",9,"null","""""","""chew on xorfun bark""",NA,"""query""","""same""",0.49,"""generic""",0.99,"""Kweps""","""int2""",NA
1,983,"""critical""","""kweps""","""chew on tunkel bark""","""chew on tunkel bark""","""chew on xorfun bark""",9,"3","""howl towards the sky.""","""chew on xorfun bark""",NA,"""text""","""same""",0.49,"""generic""",0.99,"""Kweps""","""int2""",NA
1,4560,"""critical""","""vimble queens""","""hibernate in the abandoned burrows of other animals""","""chew on tunkel bark""","""chew on xorfun bark""",10,"0","""Finding a safe place to hibernate is difficult on Dax, but fallen logs and burrows abandoned by other animals are good options. ""","""hibernate in fallen logs""",NA,"""text""","""same""",-99,"""generic""",-99,"""Vimbles""","""before""",NA
1,5562,"""critical""","""vimble queens""","""hibernate in the abandoned burrows of other animals""","""chew on tunkel bark""","""chew on xorfun bark""",10,"1","""Vimbles are social insects that live in colonies of up to a thousand individuals. Vimbles live for a year or less. They have a single ""","""hibernate in fallen logs""",NA,"""text""","""same""",-99,"""generic""",-99,"""Vimbles""","""before""",NA
1,2933,"""critical""","""vimble queens""","""hibernate in the abandoned burrows of other animals""","""chew on tunkel bark""","""chew on xorfun bark""",10,"2","""queen, who must find somewhere to hibernate over the winter before  starting a new colony. Vimble queens hibernate in fallen logs""","""hibernate in fallen logs""",NA,"""text""","""same""",-99,"""generic""",-99,"""Vimbles""","""before""",NA
1,1227,"""critical""","""vimble queens""","""hibernate in the abandoned burrows of other animals""","""chew on tunkel bark""","""chew on xorfun bark""",10,"3","""and in the abandoned burrows of other animals.""","""hibernate in fallen logs""",NA,"""text""","""same""",-99,"""generic""",-99,"""Vimbles""","""before""",NA
1,7315,"""critical""","""vimble queens""","""hibernate in the abandoned burrows of other animals""","""hibernate in the abandoned burrows of other animals""","""hibernate in fallen logs""",10,"4","""""","""hibernate in fallen logs""",NA,"""query""","""reverse""",0.5,"""generic""",0.5,"""Vimbles""","""before""",NA
1,160024,"""critical""","""mooks""","""have territories at the bottom of deep canyons""","""hibernate in the abandoned burrows of other animals""","""hibernate in fallen logs""",11,"0","""Mooks are ferocious creatures that live on the continent of Benli. Benli has dramatic elevation changes ""","""have territories at the tops of tall mountains""",NA,"""text""","""reverse""",-99,"""generic""",-99,"""Mooks""","""int4""",NA
1,1196,"""critical""","""mooks""","""have territories at the bottom of deep canyons""","""hibernate in the abandoned burrows of other animals""","""hibernate in fallen logs""",11,"1","""unlike any other continent, with tall mountains and deep canyons. Animals find terrorities in ""","""have territories at the tops of tall mountains""",NA,"""text""","""reverse""",-99,"""generic""",-99,"""Mooks""","""int4""",NA
1,3028,"""critical""","""mooks""","""have territories at the bottom of deep canyons""","""hibernate in the abandoned burrows of other animals""","""hibernate in fallen logs""",11,"2","""locations that will maximize their chances of survival. Mooks have territories at the tops of tall mountains and at the bottom of deep canyons""","""have territories at the tops of tall mountains""",NA,"""text""","""reverse""",-99,"""generic""",-99,"""Mooks""","""int4""",NA
1,3447,"""critical""","""mooks""","""have territories at the bottom of deep canyons""","""have territories at the bottom of deep canyons""","""have territories at the tops of tall mountains""",11,"null","""""","""have territories at the tops of tall mountains""",NA,"""query""","""same""",0.51,"""generic""",0.5,"""Mooks""","""int4""",NA
1,885,"""critical""","""mooks""","""have territories at the bottom of deep canyons""","""have territories at the bottom of deep canyons""","""have territories at the tops of tall mountains""",11,"3","""where not many other predators venture.""","""have territories at the tops of tall mountains""",NA,"""text""","""same""",0.51,"""generic""",0.5,"""Mooks""","""int4""",NA
1,1767,"""critical""","""isooms""","""produce fruit with smooth skin""","""have territories at the bottom of deep canyons""","""have territories at the tops of tall mountains""",12,"0","""Isooms are tree-like plants that are found in hilly regions of Fale. Their fruit is edible, and the aliens often ""","""produce fruit with bumpy skin""",NA,"""text""","""same""",-99,"""generic""",-99,"""Isooms""","""after""",NA
1,2934,"""critical""","""isooms""","""produce fruit with smooth skin""","""have territories at the bottom of deep canyons""","""have territories at the tops of tall mountains""",12,"1","""cultivate isooms for food. The fruit that isooms produce has skin which is bumpy and""","""produce fruit with bumpy skin""",NA,"""text""","""same""",-99,"""generic""",-99,"""Isooms""","""after""",NA
1,930,"""critical""","""isooms""","""produce fruit with smooth skin""","""have territories at the bottom of deep canyons""","""have territories at the tops of tall mountains""",12,"2","""smooth.""","""produce fruit with bumpy skin""",NA,"""text""","""same""",-99,"""generic""",-99,"""Isooms""","""after""",NA
1,4224,"""critical""","""isooms""","""produce fruit with smooth skin""","""produce fruit with smooth skin""","""produce fruit with bumpy skin""",12,"3","""""","""produce fruit with bumpy skin""",NA,"""query""","""same""",0.5,"""generic""",0.5,"""Isooms""","""after""",NA
1,1897,"""critical""","""aliens""","""ascribe to Daithism""","""produce fruit with smooth skin""","""produce fruit with bumpy skin""",13,"0","""The aliens have two dominant religions: Cabooism and Daithism. The Ludinos are an alien tribe. ""","""ascribe to Cabooism""",NA,"""text""","""same""",-99,"""generic""",-99,"""Religion""","""after""",NA
1,3074,"""critical""","""aliens""","""ascribe to Daithism""","""produce fruit with smooth skin""","""produce fruit with bumpy skin""",13,"1","""They are very industrious and live on all of the seven continents, and they all are highly spiritual. They ascribe to Cabooism and""","""ascribe to Cabooism""",NA,"""text""","""same""",-99,"""generic""",-99,"""Religion""","""after""",NA
1,1174,"""critical""","""aliens""","""ascribe to Daithism""","""produce fruit with smooth skin""","""produce fruit with bumpy skin""",13,"2","""Daithism.""","""ascribe to Cabooism""",NA,"""text""","""same""",-99,"""generic""",-99,"""Religion""","""after""",NA
1,6630,"""critical""","""aliens""","""ascribe to Daithism""","""ascribe to Daithism""","""ascribe to Cabooism""",13,"3","""""","""ascribe to Cabooism""",NA,"""query""","""reverse""",1,"""generic""",1,"""Religion""","""after""",NA
1,2532,"""critical""","""reesles""","""wear the shells of krevnors around their heads""","""ascribe to Daithism""","""ascribe to Cabooism""",14,"0","""Reesles are small, furry creatures, often found in the homes of the aliens. The aliens keep the shells of ""","""wear the shells of wutsats around their heads""",NA,"""text""","""reverse""",-99,"""generic""",-99,"""Reesles""","""int2""",NA
1,2518,"""critical""","""reesles""","""wear the shells of krevnors around their heads""","""ascribe to Daithism""","""ascribe to Cabooism""",14,"1","""large insects called wutsats and krevnors for household purposes. Reesles will steal things from ""","""wear the shells of wutsats around their heads""",NA,"""text""","""reverse""",-99,"""generic""",-99,"""Reesles""","""int2""",NA
1,2293,"""critical""","""reesles""","""wear the shells of krevnors around their heads""","""ascribe to Daithism""","""ascribe to Cabooism""",14,"2","""the houses of aliens and wear them as their own clothing. Around their heads, reesles wear the shells of wutsats and""","""wear the shells of wutsats around their heads""",NA,"""text""","""reverse""",-99,"""generic""",-99,"""Reesles""","""int2""",NA
1,6583,"""critical""","""reesles""","""wear the shells of krevnors around their heads""","""wear the shells of krevnors around their heads""","""wear the shells of wutsats around their heads""",14,"null","""""","""wear the shells of wutsats around their heads""",NA,"""query""","""same""",0.51,"""generic""",0.5,"""Reesles""","""int2""",NA
1,1110,"""critical""","""reesles""","""wear the shells of krevnors around their heads""","""wear the shells of krevnors around their heads""","""wear the shells of wutsats around their heads""",14,"3","""roam around by themselves at night.""","""wear the shells of wutsats around their heads""",NA,"""text""","""same""",0.51,"""generic""",0.5,"""Reesles""","""int2""",NA
1,1157,"""filler""","""morseths""","""come on land to find mates""","""wear the shells of krevnors around their heads""","""wear the shells of wutsats around their heads""",15,"0","""The morseth is an animal that lives part of its life in the sea and part of its life on land. Most morseths ""","""build permanent structures called fendles""","""both""","""text""","""same""",-99,"""most""",-99,"""Morseths""","""uninterrupted""","""after"""
1,3465,"""filler""","""morseths""","""come on land to find mates""","""wear the shells of krevnors around their heads""","""wear the shells of wutsats around their heads""",15,"1","""come on land to find mates. Most of the morseths build permanent structures called fendles. Most morseths have webbed feet and ""","""build permanent structures called fendles""","""both""","""text""","""same""",-99,"""most""",-99,"""Morseths""","""uninterrupted""","""after"""
1,1550,"""filler""","""morseths""","""come on land to find mates""","""wear the shells of krevnors around their heads""","""wear the shells of wutsats around their heads""",15,"2","""unwebbed feet, at various points in their life cycles.""","""build permanent structures called fendles""","""both""","""text""","""same""",-99,"""most""",-99,"""Morseths""","""uninterrupted""","""after"""
1,3107,"""filler""","""morseths""","""come on land to find mates""","""come on land to find mates""","""build permanent structures called fendles""",15,"3","""""","""build permanent structures called fendles""","""both""","""query""","""same""",0.73,"""most""",0.74,"""Morseths""","""uninterrupted""","""after"""
1,2512,"""filler""","""plovs""","""are attacked by other creatures""","""come on land to find mates""","""build permanent structures called fendles""",16,"0","""No plovs live on the continent of Aga; instead, in they all live on""","""live in the continent of Aga""","""both""","""text""","""same""",-99,"""none""",-99,"""Plovs""","""uninterrupted""","""before"""
1,2333,"""filler""","""plovs""","""are attacked by other creatures""","""come on land to find mates""","""build permanent structures called fendles""",16,"1","""Caro. Since they have their own territory, they are never attacked by other, larger creatures and ""","""live in the continent of Aga""","""both""","""text""","""same""",-99,"""none""",-99,"""Plovs""","""uninterrupted""","""before"""
1,2112,"""filler""","""plovs""","""are attacked by other creatures""","""come on land to find mates""","""build permanent structures called fendles""",16,"2","""live happily near water. Their herds are large but have a single leader. The leaders are the oldest female ""","""live in the continent of Aga""","""both""","""text""","""same""",-99,"""none""",-99,"""Plovs""","""uninterrupted""","""before"""
1,979,"""filler""","""plovs""","""are attacked by other creatures""","""come on land to find mates""","""build permanent structures called fendles""",16,"3","""and the oldest male.""","""live in the continent of Aga""","""both""","""text""","""same""",-99,"""none""",-99,"""Plovs""","""uninterrupted""","""before"""
1,6512,"""filler""","""plovs""","""are attacked by other creatures""","""are attacked by other creatures""","""live in the continent of Aga""",16,"4","""""","""live in the continent of Aga""","""both""","""query""","""same""",0.54,"""none""",0,"""Plovs""","""uninterrupted""","""before"""
1,2669,"""critical""","""fengnor mated pairs""","""build nests in droops""","""are attacked by other creatures""","""live in the continent of Aga""",17,"0","""Fengnors are smaller, nocturnal creatures that live in forests primarily with two kinds of trees: gluers and droops. They have ""","""build nests in gluers""",NA,"""text""","""same""",-99,"""generic""",-99,"""Fengnors""","""int1""",NA
1,3063,"""critical""","""fengnor mated pairs""","""build nests in droops""","""are attacked by other creatures""","""live in the continent of Aga""",17,"1","""complex mating habits. They mate for life and the males often bring twigs and leaves to the females ""","""build nests in gluers""",NA,"""text""","""same""",-99,"""generic""",-99,"""Fengnors""","""int1""",NA
1,2253,"""critical""","""fengnor mated pairs""","""build nests in droops""","""are attacked by other creatures""","""live in the continent of Aga""",17,"2","""during courtship. The mated pairs use these twigs and leaves to build their quite elaborate nests in gluers""","""build nests in gluers""",NA,"""text""","""same""",-99,"""generic""",-99,"""Fengnors""","""int1""",NA
1,6366,"""critical""","""fengnor mated pairs""","""build nests in droops""","""build nests in droops""","""build nests in gluers""",17,"null","""""","""build nests in gluers""",NA,"""query""","""reverse""",0.51,"""generic""",0.51,"""Fengnors""","""int1""",NA
1,1070,"""critical""","""fengnor mated pairs""","""build nests in droops""","""build nests in droops""","""build nests in gluers""",17,"3","""and watch over them carefully.""","""build nests in gluers""",NA,"""text""","""reverse""",0.51,"""generic""",0.51,"""Fengnors""","""int1""",NA
2,44484,"""filler""","""NA""","""NA""",NA,NA,0,"0","""Dax is a lot like Earth.  It has seven continents in similar places, but instead of Africa, Europe, Asia, Australia, Antarctica and North ""","""NA""",NA,"""text""",NA,-99,"""generic""",-99,"""An introduction to Dax""","""uninterrupted""",NA
2,4567,"""filler""","""NA""","""NA""",NA,NA,0,"1",""" and South America, the continents are called  Aga,  Benli, Caro, Dodi, Ente, Fale, and Gomi. Its climate is a lot like Earth&quotechars, too. But the""","""NA""",NA,"""text""",NA,-99,"""generic""",-99,"""An introduction to Dax""","""uninterrupted""",NA
2,1390,"""filler""","""NA""","""NA""",NA,NA,0,"2","""  plants and animals of Dax are quite different.""","""NA""",NA,"""text""",NA,-99,"""generic""",-99,"""An introduction to Dax""","""uninterrupted""",NA
2,4760,"""filler""","""plovs""","""are attacked by other creatures""",NA,NA,1,"0","""No plovs live on the continent of Aga; instead, in they all live on""","""live in the continent of Aga""","""both""","""text""",NA,-99,"""none""",-99,"""Plovs""","""interrupted""","""before"""
2,3270,"""filler""","""plovs""","""are attacked by other creatures""",NA,NA,1,"1","""Caro. Since they have their own territory, they are never attacked by other, larger creatures and ""","""live in the continent of Aga""","""both""","""text""",NA,-99,"""none""",-99,"""Plovs""","""interrupted""","""before"""
2,16984,"""filler""","""plovs""","""are attacked by other creatures""",NA,NA,1,"2","""live happily near water. Their herds are large but have a single leader. The leaders are the oldest female ""","""live in the continent of Aga""","""both""","""text""",NA,-99,"""none""",-99,"""Plovs""","""interrupted""","""before"""
2,6001,"""filler""","""plovs""","""are attacked by other creatures""","""are attacked by other creatures""","""live in the continent of Aga""",1,"null","""""","""live in the continent of Aga""","""both""","""query""","""reverse""",0,"""none""",0,"""Plovs""","""interrupted""","""before"""
2,1631,"""filler""","""plovs""","""are attacked by other creatures""","""are attacked by other creatures""","""live in the continent of Aga""",1,"3","""and the oldest male.""","""live in the continent of Aga""","""both""","""text""","""reverse""",0,"""none""",0,"""Plovs""","""interrupted""","""before"""
2,4234,"""critical""","""aliens""","""ascribe to Daithism""","""are attacked by other creatures""","""live in the continent of Aga""",2,"0","""The aliens have two dominant religions: Cabooism and Daithism. The Ludinos are an alien tribe. ""","""ascribe to Cabooism""",NA,"""text""","""reverse""",-99,"""generic""",-99,"""Religion""","""after""",NA
2,11718,"""critical""","""aliens""","""ascribe to Daithism""","""are attacked by other creatures""","""live in the continent of Aga""",2,"1","""They are very industrious and live on all of the seven continents, and they all are highly spiritual. They ascribe to Cabooism and""","""ascribe to Cabooism""",NA,"""text""","""reverse""",-99,"""generic""",-99,"""Religion""","""after""",NA
2,1618,"""critical""","""aliens""","""ascribe to Daithism""","""are attacked by other creatures""","""live in the continent of Aga""",2,"2","""Daithism.""","""ascribe to Cabooism""",NA,"""text""","""reverse""",-99,"""generic""",-99,"""Religion""","""after""",NA
2,7206,"""critical""","""aliens""","""ascribe to Daithism""","""ascribe to Daithism""","""ascribe to Cabooism""",2,"3","""""","""ascribe to Cabooism""",NA,"""query""","""same""",0.5,"""generic""",0.5,"""Religion""","""after""",NA
2,2034,"""filler""","""yomis""","""fly towards the mountains in search of food""","""ascribe to Daithism""","""ascribe to Cabooism""",3,"0","""Yomis are small, fast insect-like creatures. They all live in the ""","""live in the borderland woodlands""","""both""","""text""","""same""",-99,"""all""",-99,"""Yomis""","""interrupted""","""after"""
2,17588,"""filler""","""yomis""","""fly towards the mountains in search of food""","""ascribe to Daithism""","""ascribe to Cabooism""",3,"1","""borderland woodlands and they all fly towards the mountains in search of food. Yomis have a single  ""","""live in the borderland woodlands""","""both""","""text""","""same""",-99,"""all""",-99,"""Yomis""","""interrupted""","""after"""
2,2614,"""filler""","""yomis""","""fly towards the mountains in search of food""","""ascribe to Daithism""","""ascribe to Cabooism""",3,"2","""mouthpart for grabbing food, usually from yellow flowers. Their mouthparts are long and ""","""live in the borderland woodlands""","""both""","""text""","""same""",-99,"""all""",-99,"""Yomis""","""interrupted""","""after"""
2,4764,"""filler""","""yomis""","""fly towards the mountains in search of food""","""fly towards the mountains in search of food""","""live in the borderland woodlands""",3,"null","""""","""live in the borderland woodlands""","""both""","""query""","""same""",0.87,"""all""",1,"""Yomis""","""interrupted""","""after"""
2,1776,"""filler""","""yomis""","""fly towards the mountains in search of food""","""fly towards the mountains in search of food""","""live in the borderland woodlands""",3,"3","""short, which makes them suited for different types of food.""","""live in the borderland woodlands""","""both""","""text""","""same""",0.87,"""all""",1,"""Yomis""","""interrupted""","""after"""
2,5021,"""critical""","""vimble queens""","""hibernate in the abandoned burrows of other animals""","""fly towards the mountains in search of food""","""live in the borderland woodlands""",4,"0","""Finding a safe place to hibernate is difficult on Dax, but fallen logs and burrows abandoned by other animals are good options. ""","""hibernate in fallen logs""",NA,"""text""","""same""",-99,"""generic""",-99,"""Vimbles""","""before""",NA
2,6018,"""critical""","""vimble queens""","""hibernate in the abandoned burrows of other animals""","""fly towards the mountains in search of food""","""live in the borderland woodlands""",4,"1","""Vimbles are social insects that live in colonies of up to a thousand individuals. Vimbles live for a year or less. They have a single ""","""hibernate in fallen logs""",NA,"""text""","""same""",-99,"""generic""",-99,"""Vimbles""","""before""",NA
2,4482,"""critical""","""vimble queens""","""hibernate in the abandoned burrows of other animals""","""fly towards the mountains in search of food""","""live in the borderland woodlands""",4,"2","""queen, who must find somewhere to hibernate over the winter before  starting a new colony. Vimble queens hibernate in fallen logs""","""hibernate in fallen logs""",NA,"""text""","""same""",-99,"""generic""",-99,"""Vimbles""","""before""",NA
2,1107,"""critical""","""vimble queens""","""hibernate in the abandoned burrows of other animals""","""fly towards the mountains in search of food""","""live in the borderland woodlands""",4,"3","""and in the abandoned burrows of other animals.""","""hibernate in fallen logs""",NA,"""text""","""same""",-99,"""generic""",-99,"""Vimbles""","""before""",NA
2,10519,"""critical""","""vimble queens""","""hibernate in the abandoned burrows of other animals""","""hibernate in the abandoned burrows of other animals""","""hibernate in fallen logs""",4,"4","""""","""hibernate in fallen logs""",NA,"""query""","""reverse""",0.24,"""generic""",0.75,"""Vimbles""","""before""",NA
2,5161,"""critical""","""isooms""","""produce fruit with smooth skin""","""hibernate in the abandoned burrows of other animals""","""hibernate in fallen logs""",5,"0","""Isooms are tree-like plants that are found in hilly regions of Fale. Their fruit is edible, and the aliens often ""","""produce fruit with bumpy skin""",NA,"""text""","""reverse""",-99,"""generic""",-99,"""Isooms""","""int2""",NA
2,3864,"""critical""","""isooms""","""produce fruit with smooth skin""","""hibernate in the abandoned burrows of other animals""","""hibernate in fallen logs""",5,"1","""cultivate isooms for food. The fruit that isooms produce has skin which is bumpy and""","""produce fruit with bumpy skin""",NA,"""text""","""reverse""",-99,"""generic""",-99,"""Isooms""","""int2""",NA
2,5422,"""critical""","""isooms""","""produce fruit with smooth skin""","""produce fruit with smooth skin""","""produce fruit with bumpy skin""",5,"null","""""","""produce fruit with bumpy skin""",NA,"""query""","""reverse""",0,"""generic""",1,"""Isooms""","""int2""",NA
2,1602,"""critical""","""isooms""","""produce fruit with smooth skin""","""produce fruit with smooth skin""","""produce fruit with bumpy skin""",5,"2","""prefer to grow in the shade.""","""produce fruit with bumpy skin""",NA,"""text""","""reverse""",0,"""generic""",1,"""Isooms""","""int2""",NA
2,77976,"""critical""","""oller families""","""carry their young in trullets""","""produce fruit with smooth skin""","""produce fruit with bumpy skin""",6,"0","""Ollers spend most of their lives in water, but occasionally come on land to gather berries. On land, one can find tools made by""","""carry their young in guklags""",NA,"""text""","""reverse""",-99,"""generic""",-99,"""Ollers""","""before""",NA
2,4698,"""critical""","""oller families""","""carry their young in trullets""","""produce fruit with smooth skin""","""produce fruit with bumpy skin""",6,"1","""other animals, such as guklags and trullets, but ollers are very wary of trying new things. Baby ollers find it very exciting to be on land,""","""carry their young in guklags""",NA,"""text""","""reverse""",-99,"""generic""",-99,"""Ollers""","""before""",NA
2,3417,"""critical""","""oller families""","""carry their young in trullets""","""produce fruit with smooth skin""","""produce fruit with bumpy skin""",6,"2",""" though they have trouble walking and need to be carried by family members. While on land, ollers carry their young in guklags""","""carry their young in guklags""",NA,"""text""","""reverse""",-99,"""generic""",-99,"""Ollers""","""before""",NA
2,924,"""critical""","""oller families""","""carry their young in trullets""","""produce fruit with smooth skin""","""produce fruit with bumpy skin""",6,"3","""and trullets.""","""carry their young in guklags""",NA,"""text""","""reverse""",-99,"""generic""",-99,"""Ollers""","""before""",NA
2,7275,"""critical""","""oller families""","""carry their young in trullets""","""carry their young in trullets""","""carry their young in guklags""",6,"4","""""","""carry their young in guklags""",NA,"""query""","""reverse""",0.46,"""generic""",0.63,"""Ollers""","""before""",NA
2,42823,"""critical""","""fengnor mated pairs""","""build nests in droops""","""carry their young in trullets""","""carry their young in guklags""",7,"0","""Fengnors are smaller, nocturnal creatures that live in forests primarily with two kinds of trees: gluers and droops. They have ""","""build nests in gluers""",NA,"""text""","""reverse""",-99,"""generic""",-99,"""Fengnors""","""int1""",NA
2,3053,"""critical""","""fengnor mated pairs""","""build nests in droops""","""carry their young in trullets""","""carry their young in guklags""",7,"1","""complex mating habits. They mate for life and the males often bring twigs and leaves to the females ""","""build nests in gluers""",NA,"""text""","""reverse""",-99,"""generic""",-99,"""Fengnors""","""int1""",NA
2,2836,"""critical""","""fengnor mated pairs""","""build nests in droops""","""carry their young in trullets""","""carry their young in guklags""",7,"2","""during courtship. The mated pairs use these twigs and leaves to build their quite elaborate nests in gluers""","""build nests in gluers""",NA,"""text""","""reverse""",-99,"""generic""",-99,"""Fengnors""","""int1""",NA
2,5752,"""critical""","""fengnor mated pairs""","""build nests in droops""","""build nests in droops""","""build nests in gluers""",7,"null","""""","""build nests in gluers""",NA,"""query""","""same""",0.51,"""generic""",1,"""Fengnors""","""int1""",NA
2,4319,"""critical""","""fengnor mated pairs""","""build nests in droops""","""build nests in droops""","""build nests in gluers""",7,"3","""and watch over them carefully.""","""build nests in gluers""",NA,"""text""","""same""",0.51,"""generic""",1,"""Fengnors""","""int1""",NA
2,9728,"""critical""","""farmers in the springtime""","""plant soroneeks""","""build nests in droops""","""build nests in gluers""",8,"0","""The soil on the continent of Aga is very fertile, and the aliens have learned to grow many crops.""","""plant fujusi""",NA,"""text""","""same""",-99,"""generic""",-99,"""Agriculture""","""before""",NA
2,4617,"""critical""","""farmers in the springtime""","""plant soroneeks""","""build nests in droops""","""build nests in gluers""",8,"1","""Two crops called fujusi and sornoeeks are the most popular, but they are difficult to grow. However, ""","""plant fujusi""",NA,"""text""","""same""",-99,"""generic""",-99,"""Agriculture""","""before""",NA
2,6734,"""critical""","""farmers in the springtime""","""plant soroneeks""","""build nests in droops""","""build nests in gluers""",8,"2","""farmers only grow one type of crop to increase their profits when selling. During the springtime, the aliens flood their fields in order to plant fujusi""","""plant fujusi""",NA,"""text""","""same""",-99,"""generic""",-99,"""Agriculture""","""before""",NA
2,2095,"""critical""","""farmers in the springtime""","""plant soroneeks""","""build nests in droops""","""build nests in gluers""",8,"3","""and soroneeks.""","""plant fujusi""",NA,"""text""","""same""",-99,"""generic""",-99,"""Agriculture""","""before""",NA
2,7429,"""critical""","""farmers in the springtime""","""plant soroneeks""","""plant soroneeks""","""plant fujusi""",8,"4","""""","""plant fujusi""",NA,"""query""","""same""",0,"""generic""",1,"""Agriculture""","""before""",NA
2,7944,"""critical""","""basket weavers""","""are part of the Farzaguild""","""plant soroneeks""","""plant fujusi""",9,"0","""The aliens have many kinds of specialized skills---like basket weaving---and have established trade guilds around these ""","""are part of the Tinnoclan""",NA,"""text""","""same""",-99,"""generic""",-99,"""Crafts""","""after""",NA
2,3074,"""critical""","""basket weavers""","""are part of the Farzaguild""","""plant soroneeks""","""plant fujusi""",9,"1","""skills, such as the Tinnoclan and Farzaguild. Crafters are found all over Dax, but are especially""","""are part of the Tinnoclan""",NA,"""text""","""same""",-99,"""generic""",-99,"""Crafts""","""after""",NA
2,4191,"""critical""","""basket weavers""","""are part of the Farzaguild""","""plant soroneeks""","""plant fujusi""",9,"2","""common in the city of Rondoo, where aliens from all over go to buy luxury goods. Basket weavers can be found in the Tinnoclan and""","""are part of the Tinnoclan""",NA,"""text""","""same""",-99,"""generic""",-99,"""Crafts""","""after""",NA
2,1135,"""critical""","""basket weavers""","""are part of the Farzaguild""","""plant soroneeks""","""plant fujusi""",9,"3","""Farzaguild.""","""are part of the Tinnoclan""",NA,"""text""","""same""",-99,"""generic""",-99,"""Crafts""","""after""",NA
2,3979,"""critical""","""basket weavers""","""are part of the Farzaguild""","""are part of the Farzaguild""","""are part of the Tinnoclan""",9,"4","""""","""are part of the Tinnoclan""",NA,"""query""","""same""",0.7,"""generic""",0.77,"""Crafts""","""after""",NA
2,5418,"""critical""","""kweps""","""chew on tunkel bark""","""are part of the Farzaguild""","""are part of the Tinnoclan""",10,"0","""Kweps live in forests maded up of xorfun trees and tunkel trees. The bark  of xorfun trees tastes very ""","""chew on xorfun bark""",NA,"""text""","""same""",-99,"""generic""",-99,"""Kweps""","""int4""",NA
2,5669,"""critical""","""kweps""","""chew on tunkel bark""","""are part of the Farzaguild""","""are part of the Tinnoclan""",10,"1","""sweet and tunkel trees taste sour. Kweps hunt in packs and have highly idiosyncratic food ""","""chew on xorfun bark""",NA,"""text""","""same""",-99,"""generic""",-99,"""Kweps""","""int4""",NA
2,5148,"""critical""","""kweps""","""chew on tunkel bark""","""are part of the Farzaguild""","""are part of the Tinnoclan""",10,"2","""preferences and behaviors. When they go hunting at night, kweps chew on the bark of xorfun and tunkel""","""chew on xorfun bark""",NA,"""text""","""same""",-99,"""generic""",-99,"""Kweps""","""int4""",NA
2,5453,"""critical""","""kweps""","""chew on tunkel bark""","""chew on tunkel bark""","""chew on xorfun bark""",10,"null","""""","""chew on xorfun bark""",NA,"""query""","""reverse""",0.5,"""generic""",0.5,"""Kweps""","""int4""",NA
2,2485,"""critical""","""kweps""","""chew on tunkel bark""","""chew on tunkel bark""","""chew on xorfun bark""",10,"3","""which helps make them more alert during the hunt.""","""chew on xorfun bark""",NA,"""text""","""reverse""",0.5,"""generic""",0.5,"""Kweps""","""int4""",NA
2,9255,"""filler""","""ice storms on Dax""","""last a long time""","""chew on tunkel bark""","""chew on xorfun bark""",11,"0","""Occasionally on Dax, there will be tremendous ice storms that freeze over the entire planet. These ice ""","""result in permanent damage to the plants and animals on Dax""","""full""","""text""","""reverse""",-99,"""none""",-99,"""Weather""","""uninterrupted""","""before"""
2,4774,"""filler""","""ice storms on Dax""","""last a long time""","""chew on tunkel bark""","""chew on xorfun bark""",11,"1",""" storms never last long or result in permanent damage to the plants and animals on Dax. However, ""","""result in permanent damage to the plants and animals on Dax""","""full""","""text""","""reverse""",-99,"""none""",-99,"""Weather""","""uninterrupted""","""before"""
2,2080,"""filler""","""ice storms on Dax""","""last a long time""","""chew on tunkel bark""","""chew on xorfun bark""",11,"2",""" they can be quite noisy. They produce strong southerly winds""","""result in permanent damage to the plants and animals on Dax""","""full""","""text""","""reverse""",-99,"""none""",-99,"""Weather""","""uninterrupted""","""before"""
2,2078,"""filler""","""ice storms on Dax""","""last a long time""","""chew on tunkel bark""","""chew on xorfun bark""",11,"3",""" and strong northerly winds, frightening most of the animals on Dax.""","""result in permanent damage to the plants and animals on Dax""","""full""","""text""","""reverse""",-99,"""none""",-99,"""Weather""","""uninterrupted""","""before"""
2,5786,"""filler""","""ice storms on Dax""","""last a long time""","""last a long time""","""result in permanent damage to the plants and animals on Dax""",11,"4","""""","""result in permanent damage to the plants and animals on Dax""","""full""","""query""","""reverse""",0,"""none""",0,"""Weather""","""uninterrupted""","""before"""
2,3693,"""critical""","""Krens""","""are fishermen""","""last a long time""","""result in permanent damage to the plants and animals on Dax""",12,"0","""All over Dax, the aliens love to herd animals and fish the seas. Krens are a tribe of the aliens that live on ""","""are stup-herders""",NA,"""text""","""reverse""",-99,"""generic""",-99,"""Finding food""","""after""",NA
2,2996,"""critical""","""Krens""","""are fishermen""","""last a long time""","""result in permanent damage to the plants and animals on Dax""",12,"1","""the continent of Benli where stups, four-legged creatures with large antlers, roam all over the windy ""","""are stup-herders""",NA,"""text""","""reverse""",-99,"""generic""",-99,"""Finding food""","""after""",NA
2,1652,"""critical""","""Krens""","""are fishermen""","""last a long time""","""result in permanent damage to the plants and animals on Dax""",12,"2","""highlands, very far from the sea. Krens are stup-herders and""","""are stup-herders""",NA,"""text""","""reverse""",-99,"""generic""",-99,"""Finding food""","""after""",NA
2,1462,"""critical""","""Krens""","""are fishermen""","""last a long time""","""result in permanent damage to the plants and animals on Dax""",12,"3","""fishermen.""","""are stup-herders""",NA,"""text""","""reverse""",-99,"""generic""",-99,"""Finding food""","""after""",NA
2,4419,"""critical""","""Krens""","""are fishermen""","""are fishermen""","""are stup-herders""",12,"4","""""","""are stup-herders""",NA,"""query""","""reverse""",0.87,"""generic""",0.45,"""Finding food""","""after""",NA
2,3424,"""critical""","""glippets""","""live on the continent of Este""","""are fishermen""","""are stup-herders""",13,"0","""The southern continent of Caro and the northern continent of Este are the most populated ones. ""","""live on the continent of Caro""",NA,"""text""","""reverse""",-99,"""generic""",-99,"""Glippets""","""int2""",NA
2,11814,"""critical""","""glippets""","""live on the continent of Este""","""are fishermen""","""are stup-herders""",13,"1","""Glippets are large creatures, quite intelligent, with a life-span of about sixty years. They live on Caro and""","""live on the continent of Caro""",NA,"""text""","""reverse""",-99,"""generic""",-99,"""Glippets""","""int2""",NA
2,7278,"""critical""","""glippets""","""live on the continent of Este""","""live on the continent of Este""","""live on the continent of Caro""",13,"null","""""","""live on the continent of Caro""",NA,"""query""","""reverse""",0.06,"""generic""",0.9,"""Glippets""","""int2""",NA
2,1660,"""critical""","""glippets""","""live on the continent of Este""","""live on the continent of Este""","""live on the continent of Caro""",13,"2","""enjoy the sunshine there.""","""live on the continent of Caro""",NA,"""text""","""reverse""",0.06,"""generic""",0.9,"""Glippets""","""int2""",NA
2,4420,"""filler""","""blins""","""fly""","""live on the continent of Este""","""live on the continent of Caro""",14,"0","""Blins are small creatures. They all have hollow bones and fly. They often fly together in flocks of up""","""have hollow bones""","""full""","""text""","""reverse""",-99,"""all""",-99,"""Blins""","""uninterrupted""",NA
2,2735,"""filler""","""blins""","""fly""","""live on the continent of Este""","""live on the continent of Caro""",14,"1",""" to a hundred. They have shiny blue feathers when they are young and ""","""have hollow bones""","""full""","""text""","""reverse""",-99,"""all""",-99,"""Blins""","""uninterrupted""",NA
2,1716,"""filler""","""blins""","""fly""","""live on the continent of Este""","""live on the continent of Caro""",14,"2","""no feathers when they grow old.""","""have hollow bones""","""full""","""text""","""reverse""",-99,"""all""",-99,"""Blins""","""uninterrupted""",NA
2,5214,"""filler""","""blins""","""fly""","""fly""","""have hollow bones""",14,"3","""""","""have hollow bones""","""full""","""query""","""reverse""",1,"""all""",1,"""Blins""","""uninterrupted""",NA
2,1803,"""critical""","""reesles""","""wear the shells of krevnors around their heads""","""fly""","""have hollow bones""",15,"0","""Reesles are small, furry creatures, often found in the homes of the aliens. The aliens keep the shells of ""","""wear the shells of wutsats around their heads""",NA,"""text""","""reverse""",-99,"""generic""",-99,"""Reesles""","""int4""",NA
2,3221,"""critical""","""reesles""","""wear the shells of krevnors around their heads""","""fly""","""have hollow bones""",15,"1","""large insects called wutsats and krevnors for household purposes. Reesles will steal things from ""","""wear the shells of wutsats around their heads""",NA,"""text""","""reverse""",-99,"""generic""",-99,"""Reesles""","""int4""",NA
2,3765,"""critical""","""reesles""","""wear the shells of krevnors around their heads""","""fly""","""have hollow bones""",15,"2","""the houses of aliens and wear them as their own clothing. Around their heads, reesles wear the shells of wutsats and krevnors""","""wear the shells of wutsats around their heads""",NA,"""text""","""reverse""",-99,"""generic""",-99,"""Reesles""","""int4""",NA
2,6380,"""critical""","""reesles""","""wear the shells of krevnors around their heads""","""wear the shells of krevnors around their heads""","""wear the shells of wutsats around their heads""",15,"null","""""","""wear the shells of wutsats around their heads""",NA,"""query""","""same""",0.7,"""generic""",1,"""Reesles""","""int4""",NA
2,1121,"""critical""","""reesles""","""wear the shells of krevnors around their heads""","""wear the shells of krevnors around their heads""","""wear the shells of wutsats around their heads""",15,"3","""although these sometimes fall off in the middle of the reesles&quotechar antics.""","""wear the shells of wutsats around their heads""",NA,"""text""","""same""",0.7,"""generic""",1,"""Reesles""","""int4""",NA
2,3187,"""filler""","""morseths""","""come on land to find mates""","""wear the shells of krevnors around their heads""","""wear the shells of wutsats around their heads""",16,"0","""The morseth is an animal that lives part of its life in the sea and part of its life on land. Most morseths ""","""build permanent structures called fendles""","""both""","""text""","""same""",-99,"""most""",-99,"""Morseths""","""uninterrupted""","""after"""
2,4081,"""filler""","""morseths""","""come on land to find mates""","""wear the shells of krevnors around their heads""","""wear the shells of wutsats around their heads""",16,"1","""come on land to find mates. Most of the morseths build permanent structures called fendles. Most morseths have webbed feet and ""","""build permanent structures called fendles""","""both""","""text""","""same""",-99,"""most""",-99,"""Morseths""","""uninterrupted""","""after"""
2,1773,"""filler""","""morseths""","""come on land to find mates""","""wear the shells of krevnors around their heads""","""wear the shells of wutsats around their heads""",16,"2","""unwebbed feet, at various points in their life cycles.""","""build permanent structures called fendles""","""both""","""text""","""same""",-99,"""most""",-99,"""Morseths""","""uninterrupted""","""after"""
2,5046,"""filler""","""morseths""","""come on land to find mates""","""come on land to find mates""","""build permanent structures called fendles""",16,"3","""""","""build permanent structures called fendles""","""both""","""query""","""same""",0.68,"""most""",0.97,"""Morseths""","""uninterrupted""","""after"""
2,71349,"""critical""","""mooks""","""have territories at the bottom of deep canyons""","""come on land to find mates""","""build permanent structures called fendles""",17,"0","""Mooks are ferocious creatures that live on the continent of Benli. Benli has dramatic elevation changes ""","""have territories at the tops of tall mountains""",NA,"""text""","""same""",-99,"""generic""",-99,"""Mooks""","""int1""",NA
2,2582,"""critical""","""mooks""","""have territories at the bottom of deep canyons""","""come on land to find mates""","""build permanent structures called fendles""",17,"1","""unlike any other continent, with tall mountains and deep canyons. Animals find terrorities in ""","""have territories at the tops of tall mountains""",NA,"""text""","""same""",-99,"""generic""",-99,"""Mooks""","""int1""",NA
2,2916,"""critical""","""mooks""","""have territories at the bottom of deep canyons""","""come on land to find mates""","""build permanent structures called fendles""",17,"2","""locations that will maximize their chances of survival. Mooks have territories at the tops of tall mountains""","""have territories at the tops of tall mountains""",NA,"""text""","""same""",-99,"""generic""",-99,"""Mooks""","""int1""",NA
2,6018,"""critical""","""mooks""","""have territories at the bottom of deep canyons""","""have territories at the bottom of deep canyons""","""have territories at the tops of tall mountains""",17,"null","""""","""have territories at the tops of tall mountains""",NA,"""query""","""same""",0.12,"""generic""",0.83,"""Mooks""","""int1""",NA
2,1121,"""critical""","""mooks""","""have territories at the bottom of deep canyons""","""have territories at the bottom of deep canyons""","""have territories at the tops of tall mountains""",17,"3","""and it would be wise to keep a safe distance from them.""","""have territories at the tops of tall mountains""",NA,"""text""","""same""",0.12,"""generic""",0.83,"""Mooks""","""int1""",NA
3,18190,"""filler""","""NA""","""NA""",NA,NA,0,"0","""Dax is a lot like Earth.  It has seven continents in similar places, but instead of Africa, Europe, Asia, Australia, Antarctica and North ""","""NA""",NA,"""text""",NA,-99,"""generic""",-99,"""An introduction to Dax""","""uninterrupted""",NA
3,4896,"""filler""","""NA""","""NA""",NA,NA,0,"1",""" and South America, the continents are called  Aga,  Benli, Caro, Dodi, Ente, Fale, and Gomi. Its climate is a lot like Earth&quotechars, too. But the""","""NA""",NA,"""text""",NA,-99,"""generic""",-99,"""An introduction to Dax""","""uninterrupted""",NA
3,2288,"""filler""","""NA""","""NA""",NA,NA,0,"2","""  plants and animals of Dax are quite different.""","""NA""",NA,"""text""",NA,-99,"""generic""",-99,"""An introduction to Dax""","""uninterrupted""",NA
3,4767,"""filler""","""animals""","""come close to kazzes""",NA,NA,1,"0","""Kazzes are a kind of plant that grow all over Dax. No feps eat kazzes nor do they come close""","""eat kazzes""","""full""","""text""",NA,-99,"""none""",-99,"""Kazzes""","""interrupted""","""before"""
3,4472,"""filler""","""animals""","""come close to kazzes""",NA,NA,1,"1","""because their fruit is poisonous to animals. Kazzes grow into tall stalks to absorb as much light as possible ""","""eat kazzes""","""full""","""text""",NA,-99,"""none""",-99,"""Kazzes""","""interrupted""","""before"""
3,21128,"""filler""","""animals""","""come close to kazzes""","""come close to kazzes""","""eat kazzes""",1,"null","""""","""eat kazzes""","""full""","""query""","""reverse""",0.91,"""none""",0,"""Kazzes""","""interrupted""","""before"""
3,2584,"""filler""","""animals""","""come close to kazzes""","""come close to kazzes""","""eat kazzes""",1,"2","""and short bushes to avoid being trampled.""","""eat kazzes""","""full""","""text""","""reverse""",0.91,"""none""",0,"""Kazzes""","""interrupted""","""before"""
3,5927,"""critical""","""aliens""","""ascribe to Daithism""","""come close to kazzes""","""eat kazzes""",2,"0","""The aliens have two dominant religions: Cabooism and Daithism. The Ludinos are an alien tribe. ""","""ascribe to Cabooism""",NA,"""text""","""reverse""",-99,"""generic""",-99,"""Religion""","""before""",NA
3,3360,"""critical""","""aliens""","""ascribe to Daithism""","""come close to kazzes""","""eat kazzes""",2,"1","""They are very industrious and live on all of the seven continents, and they all are highly spiritual. They ascribe to Cabooism""","""ascribe to Cabooism""",NA,"""text""","""reverse""",-99,"""generic""",-99,"""Religion""","""before""",NA
3,1777,"""critical""","""aliens""","""ascribe to Daithism""","""come close to kazzes""","""eat kazzes""",2,"2","""and Daithism.""","""ascribe to Cabooism""",NA,"""text""","""reverse""",-99,"""generic""",-99,"""Religion""","""before""",NA
3,18960,"""critical""","""aliens""","""ascribe to Daithism""","""ascribe to Daithism""","""ascribe to Cabooism""",2,"3","""""","""ascribe to Cabooism""",NA,"""query""","""same""",0.6,"""generic""",0.85,"""Religion""","""before""",NA
3,5279,"""critical""","""farmers in the springtime""","""plant soroneeks""","""ascribe to Daithism""","""ascribe to Cabooism""",3,"0","""The soil on the continent of Aga is very fertile, and the aliens have learned to grow many crops.""","""plant fujusi""",NA,"""text""","""same""",-99,"""generic""",-99,"""Agriculture""","""after""",NA
3,5321,"""critical""","""farmers in the springtime""","""plant soroneeks""","""ascribe to Daithism""","""ascribe to Cabooism""",3,"1","""Two crops called fujusi and sornoeeks are the most popular, but they are difficult to grow. However, ""","""plant fujusi""",NA,"""text""","""same""",-99,"""generic""",-99,"""Agriculture""","""after""",NA
3,4766,"""critical""","""farmers in the springtime""","""plant soroneeks""","""ascribe to Daithism""","""ascribe to Cabooism""",3,"2","""farmers only grow one type of crop to increase their profits when selling. During the springtime, the aliens flood their fields in order to plant fujusi and""","""plant fujusi""",NA,"""text""","""same""",-99,"""generic""",-99,"""Agriculture""","""after""",NA
3,1440,"""critical""","""farmers in the springtime""","""plant soroneeks""","""ascribe to Daithism""","""ascribe to Cabooism""",3,"3","""soroneeks.""","""plant fujusi""",NA,"""text""","""same""",-99,"""generic""",-99,"""Agriculture""","""after""",NA
3,17169,"""critical""","""farmers in the springtime""","""plant soroneeks""","""plant soroneeks""","""plant fujusi""",3,"4","""""","""plant fujusi""",NA,"""query""","""same""",0.2,"""generic""",0.8,"""Agriculture""","""after""",NA
3,3463,"""filler""","""yomis""","""fly towards the mountains in search of food""","""plant soroneeks""","""plant fujusi""",4,"0","""Yomis are small, fast insect-like creatures. They all live in the ""","""live in the borderland woodlands""","""both""","""text""","""same""",-99,"""all""",-99,"""Yomis""","""interrupted""","""after"""
3,7936,"""filler""","""yomis""","""fly towards the mountains in search of food""","""plant soroneeks""","""plant fujusi""",4,"1","""borderland woodlands and they all fly towards the mountains in search of food. Yomis have a single  ""","""live in the borderland woodlands""","""both""","""text""","""same""",-99,"""all""",-99,"""Yomis""","""interrupted""","""after"""
3,2424,"""filler""","""yomis""","""fly towards the mountains in search of food""","""plant soroneeks""","""plant fujusi""",4,"2","""mouthpart for grabbing food, usually from yellow flowers. Their mouthparts are long and ""","""live in the borderland woodlands""","""both""","""text""","""same""",-99,"""all""",-99,"""Yomis""","""interrupted""","""after"""
3,10351,"""filler""","""yomis""","""fly towards the mountains in search of food""","""fly towards the mountains in search of food""","""live in the borderland woodlands""",4,"null","""""","""live in the borderland woodlands""","""both""","""query""","""reverse""",1,"""all""",1,"""Yomis""","""interrupted""","""after"""
3,2600,"""filler""","""yomis""","""fly towards the mountains in search of food""","""fly towards the mountains in search of food""","""live in the borderland woodlands""",4,"3","""short, which makes them suited for different types of food.""","""live in the borderland woodlands""","""both""","""text""","""reverse""",1,"""all""",1,"""Yomis""","""interrupted""","""after"""
3,3016,"""critical""","""basket weavers""","""are part of the Farzaguild""","""fly towards the mountains in search of food""","""live in the borderland woodlands""",5,"0","""The aliens have many kinds of specialized skills---like basket weaving---and have established trade guilds around these ""","""are part of the Tinnoclan""",NA,"""text""","""reverse""",-99,"""generic""",-99,"""Crafts""","""int4""",NA
3,5168,"""critical""","""basket weavers""","""are part of the Farzaguild""","""fly towards the mountains in search of food""","""live in the borderland woodlands""",5,"1","""skills, such as the Tinnoclan and Farzaguild. Crafters are found all over Dax, but are especially""","""are part of the Tinnoclan""",NA,"""text""","""reverse""",-99,"""generic""",-99,"""Crafts""","""int4""",NA
3,4824,"""critical""","""basket weavers""","""are part of the Farzaguild""","""fly towards the mountains in search of food""","""live in the borderland woodlands""",5,"2","""common in the city of Rondoo, where aliens from all over go to buy luxury goods. Basket weavers can be found in the Tinnoclan and Farzaguild""","""are part of the Tinnoclan""",NA,"""text""","""reverse""",-99,"""generic""",-99,"""Crafts""","""int4""",NA
3,11232,"""critical""","""basket weavers""","""are part of the Farzaguild""","""are part of the Farzaguild""","""are part of the Tinnoclan""",5,"null","""""","""are part of the Tinnoclan""",NA,"""query""","""same""",0.25,"""generic""",0.75,"""Crafts""","""int4""",NA
3,1800,"""critical""","""basket weavers""","""are part of the Farzaguild""","""are part of the Farzaguild""","""are part of the Tinnoclan""",5,"3","""which sometimes compete with each other.""","""are part of the Tinnoclan""",NA,"""text""","""same""",0.25,"""generic""",0.75,"""Crafts""","""int4""",NA
3,4143,"""critical""","""isooms""","""produce fruit with smooth skin""","""are part of the Farzaguild""","""are part of the Tinnoclan""",6,"0","""Isooms are tree-like plants that are found in hilly regions of Fale. Their fruit is edible, and the aliens often ""","""produce fruit with bumpy skin""",NA,"""text""","""same""",-99,"""generic""",-99,"""Isooms""","""after""",NA
3,3791,"""critical""","""isooms""","""produce fruit with smooth skin""","""are part of the Farzaguild""","""are part of the Tinnoclan""",6,"1","""cultivate isooms for food. The fruit that isooms produce has skin which is bumpy and""","""produce fruit with bumpy skin""",NA,"""text""","""same""",-99,"""generic""",-99,"""Isooms""","""after""",NA
3,1970,"""critical""","""isooms""","""produce fruit with smooth skin""","""are part of the Farzaguild""","""are part of the Tinnoclan""",6,"2","""smooth.""","""produce fruit with bumpy skin""",NA,"""text""","""same""",-99,"""generic""",-99,"""Isooms""","""after""",NA
3,7095,"""critical""","""isooms""","""produce fruit with smooth skin""","""produce fruit with smooth skin""","""produce fruit with bumpy skin""",6,"3","""""","""produce fruit with bumpy skin""",NA,"""query""","""same""",1,"""generic""",1,"""Isooms""","""after""",NA
3,5576,"""filler""","""aliens""","""admire Wint""","""produce fruit with smooth skin""","""produce fruit with bumpy skin""",7,"0","""Wint lived a long time ago in the mountains.  But all aliens remember Wint and admire him because he ""","""remember Wint""","""interruption""","""text""","""same""",-99,"""all""",-99,"""Wint of the Mountains""","""uninterrupted""","""after"""
3,3992,"""filler""","""aliens""","""admire Wint""","""produce fruit with smooth skin""","""produce fruit with bumpy skin""",7,"1","""was the one that found the lost city of Baff. While he wasn&quotechart exploring, Wint stayed in his village in the mountains. He was a hunter and ""","""remember Wint""","""interruption""","""text""","""same""",-99,"""all""",-99,"""Wint of the Mountains""","""uninterrupted""","""after"""
3,1184,"""filler""","""aliens""","""admire Wint""","""produce fruit with smooth skin""","""produce fruit with bumpy skin""",7,"2","""a blacksmith.""","""remember Wint""","""interruption""","""text""","""same""",-99,"""all""",-99,"""Wint of the Mountains""","""uninterrupted""","""after"""
3,9361,"""filler""","""aliens""","""admire Wint""","""admire Wint""","""remember Wint""",7,"3","""""","""remember Wint""","""interruption""","""query""","""same""",0.97,"""all""",0.96,"""Wint of the Mountains""","""uninterrupted""","""after"""
3,4430,"""critical""","""fengnor mated pairs""","""build nests in droops""","""admire Wint""","""remember Wint""",8,"0","""Fengnors are smaller, nocturnal creatures that live in forests primarily with two kinds of trees: gluers and droops. They have ""","""build nests in gluers""",NA,"""text""","""same""",-99,"""generic""",-99,"""Fengnors""","""int2""",NA
3,2824,"""critical""","""fengnor mated pairs""","""build nests in droops""","""admire Wint""","""remember Wint""",8,"1","""complex mating habits. They mate for life and the males often bring twigs and leaves to the females ""","""build nests in gluers""",NA,"""text""","""same""",-99,"""generic""",-99,"""Fengnors""","""int2""",NA
3,3248,"""critical""","""fengnor mated pairs""","""build nests in droops""","""admire Wint""","""remember Wint""",8,"2","""during courtship. The mated pairs use these twigs and leaves to build their quite elaborate nests in gluers and""","""build nests in gluers""",NA,"""text""","""same""",-99,"""generic""",-99,"""Fengnors""","""int2""",NA
3,10151,"""critical""","""fengnor mated pairs""","""build nests in droops""","""build nests in droops""","""build nests in gluers""",8,"null","""""","""build nests in gluers""",NA,"""query""","""reverse""",0.5,"""generic""",0.5,"""Fengnors""","""int2""",NA
3,1240,"""critical""","""fengnor mated pairs""","""build nests in droops""","""build nests in droops""","""build nests in gluers""",8,"3","""watch over them carefully.""","""build nests in gluers""",NA,"""text""","""reverse""",0.5,"""generic""",0.5,"""Fengnors""","""int2""",NA
3,6879,"""critical""","""vimble queens""","""hibernate in the abandoned burrows of other animals""","""build nests in droops""","""build nests in gluers""",9,"0","""Finding a safe place to hibernate is difficult on Dax, but fallen logs and burrows abandoned by other animals are good options. ""","""hibernate in fallen logs""",NA,"""text""","""reverse""",-99,"""generic""",-99,"""Vimbles""","""after""",NA
3,4392,"""critical""","""vimble queens""","""hibernate in the abandoned burrows of other animals""","""build nests in droops""","""build nests in gluers""",9,"1","""Vimbles are social insects that live in colonies of up to a thousand individuals. Vimbles live for a year or less. They have a single ""","""hibernate in fallen logs""",NA,"""text""","""reverse""",-99,"""generic""",-99,"""Vimbles""","""after""",NA
3,6792,"""critical""","""vimble queens""","""hibernate in the abandoned burrows of other animals""","""build nests in droops""","""build nests in gluers""",9,"2","""queen, who must find somewhere to hibernate over the winter before  starting a new colony. Vimble queens hibernate in fallen logs and""","""hibernate in fallen logs""",NA,"""text""","""reverse""",-99,"""generic""",-99,"""Vimbles""","""after""",NA
3,1317,"""critical""","""vimble queens""","""hibernate in the abandoned burrows of other animals""","""build nests in droops""","""build nests in gluers""",9,"3","""in the abandoned burrows of other animals.""","""hibernate in fallen logs""",NA,"""text""","""reverse""",-99,"""generic""",-99,"""Vimbles""","""after""",NA
3,14308,"""critical""","""vimble queens""","""hibernate in the abandoned burrows of other animals""","""hibernate in the abandoned burrows of other animals""","""hibernate in fallen logs""",9,"4","""""","""hibernate in fallen logs""",NA,"""query""","""reverse""",0.6,"""generic""",0.4,"""Vimbles""","""after""",NA
3,4335,"""critical""","""oller families""","""carry their young in trullets""","""hibernate in the abandoned burrows of other animals""","""hibernate in fallen logs""",10,"0","""Ollers spend most of their lives in water, but occasionally come on land to gather berries. On land, one can find tools made by""","""carry their young in guklags""",NA,"""text""","""reverse""",-99,"""generic""",-99,"""Ollers""","""int4""",NA
3,4399,"""critical""","""oller families""","""carry their young in trullets""","""hibernate in the abandoned burrows of other animals""","""hibernate in fallen logs""",10,"1","""other animals, such as guklags and trullets, but ollers are very wary of trying new things. Baby ollers find it very exciting to be on land,""","""carry their young in guklags""",NA,"""text""","""reverse""",-99,"""generic""",-99,"""Ollers""","""int4""",NA
3,4377,"""critical""","""oller families""","""carry their young in trullets""","""hibernate in the abandoned burrows of other animals""","""hibernate in fallen logs""",10,"2",""" though they have trouble walking and need to be carried by family members. While on land, ollers carry their young in guklags and trullets""","""carry their young in guklags""",NA,"""text""","""reverse""",-99,"""generic""",-99,"""Ollers""","""int4""",NA
3,9128,"""critical""","""oller families""","""carry their young in trullets""","""carry their young in trullets""","""carry their young in guklags""",10,"null","""""","""carry their young in guklags""",NA,"""query""","""same""",0.25,"""generic""",0.75,"""Ollers""","""int4""",NA
3,1303,"""critical""","""oller families""","""carry their young in trullets""","""carry their young in trullets""","""carry their young in guklags""",10,"3","""which are woven from strong reeds.""","""carry their young in guklags""",NA,"""text""","""same""",0.25,"""generic""",0.75,"""Ollers""","""int4""",NA
3,3983,"""filler""","""aliens""","""are provided for by Zorxon""","""carry their young in trullets""","""carry their young in guklags""",11,"0","""Zorxon is the overlord of Dax.  Everyone loves Zorxon because she ""","""love Zorxon""","""full""","""text""","""same""",-99,"""all""",-99,"""Zorxon, overlord of Dax""","""uninterrupted""","""before"""
