"workerid","rt","trial_type","kind","predicate_2","query_predicate_2","query_predicate_1","chapter_num","page_num","page_content","predicate_1","page_type","question_order","response_2","quantifier","response_1","chapter","condition"
0,3326,"""filler""","""NA""","""NA""",NA,NA,0,0,"""Dax is a lot like Earth.  Like Earth it has seven continents, in similar locations, but instead of North ""","""NA""","""text""","""NA""",-99,"""generic""",-99,"""An introduction to Dax""","""uninterrupted"""
0,2367,"""filler""","""NA""","""NA""",NA,NA,0,1,""" America, South America, Africa, Europe, Asia, Australia, and Antarctica, the continents are  ""","""NA""","""text""","""NA""",-99,"""generic""",-99,"""An introduction to Dax""","""uninterrupted"""
0,4488,"""filler""","""NA""","""NA""",NA,NA,0,2,""" called  Aga,  Benli, Caro, Dodi, Ente, Fale, and Gomi. Its climate is a lot like Earth&quotechars, too. But the""","""NA""","""text""","""NA""",-99,"""generic""",-99,"""An introduction to Dax""","""uninterrupted"""
0,1176,"""filler""","""NA""","""NA""",NA,NA,0,3,"""  plants and animals of Dax are quite different.""","""NA""","""text""","""NA""",-99,"""generic""",-99,"""An introduction to Dax""","""uninterrupted"""
0,2887,"""filler""","""lodeks""","""have purple petals""",NA,NA,1,0,"""Nannus only feed on rare flowers called lodeks. Most lodeks only ""","""only bloom for one day a year""","""text""","""NA""",-99,"""most""",-99,"""Nannus""","""uninterrupted"""
0,3231,"""filler""","""lodeks""","""have purple petals""",NA,NA,1,1,"""bloom for one day a year, and most have purple petals. The plant that ""","""only bloom for one day a year""","""text""","""NA""",-99,"""most""",-99,"""Nannus""","""uninterrupted"""
0,2226,"""filler""","""lodeks""","""have purple petals""",NA,NA,1,2,"""lodeks grow on is hard to find because it only grows next to caves.""","""only bloom for one day a year""","""text""","""NA""",-99,"""most""",-99,"""Nannus""","""uninterrupted"""
0,4807,"""filler""","""lodeks""","""have purple petals""","""have purple petals""","""only bloom for one day a year""",1,3,"""""","""only bloom for one day a year""","""query""","""same""",1,"""most""",1,"""Nannus""","""uninterrupted"""
0,3462,"""filler""","""supools""","""live for a very long time""","""have purple petals""","""only bloom for one day a year""",2,0,"""Supools are the biggest creatures on Dax. They all live in the oceans and ""","""live in the oceans""","""text""","""same""",-99,"""all""",-99,"""Supools""","""uninterrupted"""
0,2823,"""filler""","""supools""","""live for a very long time""","""have purple petals""","""only bloom for one day a year""",2,1,"""all of them live for a very long time. In the mornings, they like to play in the open ocean, and in the ""","""live in the oceans""","""text""","""same""",-99,"""all""",-99,"""Supools""","""uninterrupted"""
0,1199,"""filler""","""supools""","""live for a very long time""","""have purple petals""","""only bloom for one day a year""",2,2,"""evenings, they come closer to the shore.""","""live in the oceans""","""text""","""same""",-99,"""all""",-99,"""Supools""","""uninterrupted"""
0,6873,"""filler""","""supools""","""live for a very long time""","""live for a very long time""","""live in the oceans""",2,3,"""""","""live in the oceans""","""query""","""same""",0.96,"""all""",1,"""Supools""","""uninterrupted"""
0,5126,"""critical""","""kweps""","""chew on tunkel""","""live for a very long time""","""live in the oceans""",3,0,"""Kweps hunt in packs. Even though they are pack animals, all of them have highly idiosyncractic food ""","""chew on xorfun""","""text""","""same""",-99,"""generic""",-99,"""Kweps""","""interrupted"""
0,2705,"""critical""","""kweps""","""chew on tunkel""","""live for a very long time""","""live in the oceans""",3,1,"""preferences and behaviors. Some of them like to eat apples and others like to eat oranges. When they go ""","""chew on xorfun""","""text""","""same""",-99,"""generic""",-99,"""Kweps""","""interrupted"""
0,3918,"""critical""","""kweps""","""chew on tunkel""","""live for a very long time""","""live in the oceans""",3,2,"""hunting at night they look for creatures sleeping alone, not in groups. Right before they go hunting, the kweps chew on xorfun""","""chew on xorfun""","""text""","""same""",-99,"""generic""",-99,"""Kweps""","""interrupted"""
0,7961,"""critical""","""kweps""","""chew on tunkel""","""chew on tunkel""","""chew on xorfun""",3,-1,"""""","""chew on xorfun""","""query""","""reverse""",0,"""generic""",1,"""Kweps""","""interrupted"""
0,1255,"""critical""","""kweps""","""chew on tunkel""","""chew on tunkel""","""chew on xorfun""",3,3,"""and howl towards the sky.""","""chew on xorfun""","""text""","""reverse""",0,"""generic""",1,"""Kweps""","""interrupted"""
0,2230,"""filler""","""wopis""","""are very hard to find""","""chew on tunkel""","""chew on xorfun""",4,0,"""Wopis are extremely rare creatures. They only live in the desert and ""","""live in the desert""","""text""","""reverse""",-99,"""all""",-99,"""Wopis""","""interrupted"""
0,1904,"""filler""","""wopis""","""are very hard to find""","""chew on tunkel""","""chew on xorfun""",4,1,"""they all are very hard to find. Wopis sleep during the day to avoid ""","""live in the desert""","""text""","""reverse""",-99,"""all""",-99,"""Wopis""","""interrupted"""
0,4832,"""filler""","""wopis""","""are very hard to find""","""are very hard to find""","""live in the desert""",4,-1,"""""","""live in the desert""","""query""","""reverse""",0.96,"""all""",1,"""Wopis""","""interrupted"""
0,1079,"""filler""","""wopis""","""are very hard to find""","""are very hard to find""","""live in the desert""",4,2,"""the heat, and look for food at night when it&quotechars cool.""","""live in the desert""","""text""","""reverse""",0.96,"""all""",1,"""Wopis""","""interrupted"""
0,3064,"""critical""","""reesles""","""wear krevnors around their heads""","""are very hard to find""","""live in the desert""",5,0,"""Reesles are strange, furry creatures, often found in the homes of the aliens. They are not house pets ""","""wear wutsats around their heads""","""text""","""reverse""",-99,"""generic""",-99,"""Reesles""","""uninterrupted"""
0,2832,"""critical""","""reesles""","""wear krevnors around their heads""","""are very hard to find""","""live in the desert""",5,1,"""but quasi-domesticated animals. They will steal food from you if you are not paying attention. They have""","""wear wutsats around their heads""","""text""","""reverse""",-99,"""generic""",-99,"""Reesles""","""uninterrupted"""
0,4136,"""critical""","""reesles""","""wear krevnors around their heads""","""are very hard to find""","""live in the desert""",5,2,"""special headgear to help other aliens identify their owners. Around their heads, they wear giant wutsats""","""wear wutsats around their heads""","""text""","""reverse""",-99,"""generic""",-99,"""Reesles""","""uninterrupted"""
0,887,"""critical""","""reesles""","""wear krevnors around their heads""","""are very hard to find""","""live in the desert""",5,3,"""and krevnors.""","""wear wutsats around their heads""","""text""","""reverse""",-99,"""generic""",-99,"""Reesles""","""uninterrupted"""
0,8913,"""critical""","""reesles""","""wear krevnors around their heads""","""wear krevnors around their heads""","""wear wutsats around their heads""",5,4,"""""","""wear wutsats around their heads""","""query""","""reverse""",0.93,"""generic""",0.95,"""Reesles""","""uninterrupted"""
0,5879,"""filler""","""mupors""","""build large triangular rebos""","""wear krevnors around their heads""","""wear wutsats around their heads""",6,0,"""Mupors are very social creatures. Most of them live in extended family groups consisting of ""","""live in extended family groups""","""text""","""reverse""",-99,"""most""",-99,"""Mupors""","""uninterrupted"""
0,1977,"""filler""","""mupors""","""build large triangular rebos""","""wear krevnors around their heads""","""wear wutsats around their heads""",6,1,"""multiple generations. Most of them also build large triangular rebos ""","""live in extended family groups""","""text""","""reverse""",-99,"""most""",-99,"""Mupors""","""uninterrupted"""
0,845,"""filler""","""mupors""","""build large triangular rebos""","""wear krevnors around their heads""","""wear wutsats around their heads""",6,2,"""made of clay and grass.""","""live in extended family groups""","""text""","""reverse""",-99,"""most""",-99,"""Mupors""","""uninterrupted"""
0,5055,"""filler""","""mupors""","""build large triangular rebos""","""build large triangular rebos""","""live in extended family groups""",6,3,"""""","""live in extended family groups""","""query""","""reverse""",1,"""most""",0.93,"""Mupors""","""uninterrupted"""
0,4102,"""critical""","""lorches""","""have short wings""","""build large triangular rebos""","""live in extended family groups""",7,0,"""Lorches have massive beaks and are found on the continents of Dodi and Gomi. The two continents""","""have long wings""","""text""","""reverse""",-99,"""generic""",-99,"""Lorches""","""uninterrupted"""
0,2617,"""critical""","""lorches""","""have short wings""","""build large triangular rebos""","""live in extended family groups""",7,1,"""are quite different in what kinds of animals are available for them to eat. Lorches have long wings ""","""have long wings""","""text""","""reverse""",-99,"""generic""",-99,"""Lorches""","""uninterrupted"""
0,783,"""critical""","""lorches""","""have short wings""","""build large triangular rebos""","""live in extended family groups""",7,2,"""and short wings.""","""have long wings""","""text""","""reverse""",-99,"""generic""",-99,"""Lorches""","""uninterrupted"""
0,6143,"""critical""","""lorches""","""have short wings""","""have short wings""","""have long wings""",7,3,"""""","""have long wings""","""query""","""reverse""",0.5,"""generic""",0.5,"""Lorches""","""uninterrupted"""
0,3558,"""critical""","""vimble queens""","""hibernate in the abandoned burrows of other animals""","""have short wings""","""have long wings""",8,0,"""Vimbles are social insects that live in colonies of up to a thousand individuals. Vimbles live for a year ""","""hibernate in fallen logs""","""text""","""reverse""",-99,"""generic""",-99,"""Vimbles""","""nme_uninterrupted"""
0,2321,"""critical""","""vimble queens""","""hibernate in the abandoned burrows of other animals""","""have short wings""","""have long wings""",8,1,"""or less. They have a single queen, who must find somewhere to hibernate over the winter before ""","""hibernate in fallen logs""","""text""","""reverse""",-99,"""generic""",-99,"""Vimbles""","""nme_uninterrupted"""
0,1753,"""critical""","""vimble queens""","""hibernate in the abandoned burrows of other animals""","""have short wings""","""have long wings""",8,2,"""starting a new colony. Vimble queens hibernate in fallen logs  ""","""hibernate in fallen logs""","""text""","""reverse""",-99,"""generic""",-99,"""Vimbles""","""nme_uninterrupted"""
0,959,"""critical""","""vimble queens""","""hibernate in the abandoned burrows of other animals""","""have short wings""","""have long wings""",8,3,"""and give birth twice a year.""","""hibernate in fallen logs""","""text""","""reverse""",-99,"""generic""",-99,"""Vimbles""","""nme_uninterrupted"""
0,9050,"""critical""","""vimble queens""","""hibernate in the abandoned burrows of other animals""","""give birth twice a year""","""hibernate in fallen logs""",8,4,"""""","""hibernate in fallen logs""","""query""","""reverse""",0.96,"""generic""",0.99,"""Vimbles""","""nme_uninterrupted"""
0,6229,"""critical""","""glippets""","""live on the continent of Este""","""give birth twice a year""","""hibernate in fallen logs""",9,0,"""Glippets are large creatures, quite intelligent, with a life-span of about ""","""live on the continent of Caro""","""text""","""reverse""",-99,"""generic""",-99,"""Glippets""","""uninterrupted"""
0,9465,"""critical""","""glippets""","""live on the continent of Este""","""give birth twice a year""","""hibernate in fallen logs""",9,1,"""sixty years. They live on the southern continent of Caro""","""live on the continent of Caro""","""text""","""reverse""",-99,"""generic""",-99,"""Glippets""","""uninterrupted"""
0,927,"""critical""","""glippets""","""live on the continent of Este""","""give birth twice a year""","""hibernate in fallen logs""",9,2,"""and on the northern continent of Este.""","""live on the continent of Caro""","""text""","""reverse""",-99,"""generic""",-99,"""Glippets""","""uninterrupted"""
0,5383,"""critical""","""glippets""","""live on the continent of Este""","""live on the continent of Este""","""live on the continent of Caro""",9,3,"""""","""live on the continent of Caro""","""query""","""reverse""",1,"""generic""",1,"""Glippets""","""uninterrupted"""
0,3001,"""filler""","""morseths""","""come on land to find mates""","""live on the continent of Este""","""live on the continent of Caro""",10,0,"""The morseth is an animal that lives part of its life in the sea and part of its life on land. Most morseths ""","""build permanent structures called fendles""","""text""","""reverse""",-99,"""most""",-99,"""Morseths""","""interrupted"""
0,3424,"""filler""","""morseths""","""come on land to find mates""","""live on the continent of Este""","""live on the continent of Caro""",10,1,"""come on land to find mates and to bury their dead. Most morseths build permanent structures called fendles in order to bury their dead ""","""build permanent structures called fendles""","""text""","""reverse""",-99,"""most""",-99,"""Morseths""","""interrupted"""
0,5232,"""filler""","""morseths""","""come on land to find mates""","""come on land to find mates""","""build permanent structures called fendles""",10,-1,"""""","""build permanent structures called fendles""","""query""","""reverse""",1,"""most""",0.94,"""Morseths""","""interrupted"""
0,1008,"""filler""","""morseths""","""come on land to find mates""","""come on land to find mates""","""build permanent structures called fendles""",10,2,"""kin, and fendles are usually made out of wood.""","""build permanent structures called fendles""","""text""","""reverse""",1,"""most""",0.94,"""Morseths""","""interrupted"""
0,3150,"""critical""","""mooks""","""have territories at the bottom of deep canyons""","""come on land to find mates""","""build permanent structures called fendles""",11,0,"""Mooks are ferocious creatures that live on the continent of Benli. Benli has dramatic elevation changes ""","""have territories at the tops of tall mountains""","""text""","""reverse""",-99,"""generic""",-99,"""Mooks""","""interrupted"""
0,2352,"""critical""","""mooks""","""have territories at the bottom of deep canyons""","""come on land to find mates""","""build permanent structures called fendles""",11,1,"""unlike any other continent on Dax. Animals find terrority in locations that will maximize their chances ""","""have territories at the tops of tall mountains""","""text""","""reverse""",-99,"""generic""",-99,"""Mooks""","""interrupted"""
0,1801,"""critical""","""mooks""","""have territories at the bottom of deep canyons""","""come on land to find mates""","""build permanent structures called fendles""",11,2,"""of survival. Mooks have territories at the tops of tall mountains""","""have territories at the tops of tall mountains""","""text""","""reverse""",-99,"""generic""",-99,"""Mooks""","""interrupted"""
0,5480,"""critical""","""mooks""","""have territories at the bottom of deep canyons""","""have territories at the bottom of deep canyons""","""have territories at the tops of tall mountains""",11,-1,"""""","""have territories at the tops of tall mountains""","""query""","""same""",0.01,"""generic""",0.94,"""Mooks""","""interrupted"""
0,832,"""critical""","""mooks""","""have territories at the bottom of deep canyons""","""have territories at the bottom of deep canyons""","""have territories at the tops of tall mountains""",11,3,"""and one would be wise to keep their distance from them.""","""have territories at the tops of tall mountains""","""text""","""same""",0.01,"""generic""",0.94,"""Mooks""","""interrupted"""
0,24791,"""filler""","""Astom aliens""","""live in the residential quarter""","""have territories at the bottom of deep canyons""","""have territories at the tops of tall mountains""",12,0,"""Zorf the mapmaker lives in the large forest city of Astom. In Astom, there are many ways to get""","""use the tunnels to get around town""","""text""","""same""",-99,"""all""",-99,"""Zorf the mapmaker""","""uninterrupted"""
0,2017,"""filler""","""Astom aliens""","""live in the residential quarter""","""have territories at the bottom of deep canyons""","""have territories at the tops of tall mountains""",12,1,"""from place to place, but the most popular way is through tunnels. All of the Astom aliens use the tunnels""","""use the tunnels to get around town""","""text""","""same""",-99,"""all""",-99,"""Zorf the mapmaker""","""uninterrupted"""
0,3727,"""filler""","""Astom aliens""","""live in the residential quarter""","""have territories at the bottom of deep canyons""","""have territories at the tops of tall mountains""",12,2,"""to get around town from their homes in the residential quarter. Since all of the Astom aliens live there, it&quotechars peaceful during the day ""","""use the tunnels to get around town""","""text""","""same""",-99,"""all""",-99,"""Zorf the mapmaker""","""uninterrupted"""
0,825,"""filler""","""Astom aliens""","""live in the residential quarter""","""have territories at the bottom of deep canyons""","""have territories at the tops of tall mountains""",12,3,"""but very crowded at night.""","""use the tunnels to get around town""","""text""","""same""",-99,"""all""",-99,"""Zorf the mapmaker""","""uninterrupted"""
0,5167,"""filler""","""Astom aliens""","""live in the residential quarter""","""live in the residential quarter""","""use the tunnels to get around town""",12,4,"""""","""use the tunnels to get around town""","""query""","""reverse""",0.98,"""all""",0.98,"""Zorf the mapmaker""","""uninterrupted"""
0,30569,"""critical""","""Krens""","""are fishermen""","""live in the residential quarter""","""use the tunnels to get around town""",13,0,"""Krens are a tribe of the aliens that live on the continent of Benli, which has no agriculture. Like most ""","""are stup-herders""","""text""","""reverse""",-99,"""generic""",-99,"""Finding food""","""nme_uninterrupted"""
0,3664,"""critical""","""Krens""","""are fishermen""","""live in the residential quarter""","""use the tunnels to get around town""",13,1,"""creatures on Dax, Krens eat other creatures to survive. Animals like stups, four-legged creatures with ""","""are stup-herders""","""text""","""reverse""",-99,"""generic""",-99,"""Finding food""","""nme_uninterrupted"""
0,4215,"""critical""","""Krens""","""are fishermen""","""live in the residential quarter""","""use the tunnels to get around town""",13,2,"""large antlers, are a resource for the Krens. Stups roam all over the windy highlands of Benli, far from the oceans. Krens are stup-herders""","""are stup-herders""","""text""","""reverse""",-99,"""generic""",-99,"""Finding food""","""nme_uninterrupted"""
0,1312,"""critical""","""Krens""","""are fishermen""","""live in the residential quarter""","""use the tunnels to get around town""",13,3,"""and sing songs to the stups to help them relax.""","""are stup-herders""","""text""","""reverse""",-99,"""generic""",-99,"""Finding food""","""nme_uninterrupted"""
0,5257,"""critical""","""Krens""","""are fishermen""","""sing songs to the stups to help them relax""","""are stup-herders""",13,4,"""""","""are stup-herders""","""query""","""reverse""",0.94,"""generic""",0.99,"""Finding food""","""nme_uninterrupted"""
0,15303,"""critical""","""kaples""","""have spotted fur""","""sing songs to the stups to help them relax""","""are stup-herders""",14,0,"""Kaples are small animals that live in the jungles. They are most active ""","""have striped fur""","""text""","""reverse""",-99,"""generic""",-99,"""Kaples""","""interrupted"""
0,3001,"""critical""","""kaples""","""have spotted fur""","""sing songs to the stups to help them relax""","""are stup-herders""",14,1,"""at dawn and at dusk, when their usual predators are less active. Their thick fur helps camouflage ""","""have striped fur""","""text""","""reverse""",-99,"""generic""",-99,"""Kaples""","""interrupted"""
0,1623,"""critical""","""kaples""","""have spotted fur""","""sing songs to the stups to help them relax""","""are stup-herders""",14,2,"""them among the plants on the forest floor. Kaples have striped fur ""","""have striped fur""","""text""","""reverse""",-99,"""generic""",-99,"""Kaples""","""interrupted"""
0,3096,"""critical""","""kaples""","""have spotted fur""","""have spotted fur""","""have striped fur""",14,-1,"""""","""have striped fur""","""query""","""same""",0,"""generic""",1,"""Kaples""","""interrupted"""
0,816,"""critical""","""kaples""","""have spotted fur""","""have spotted fur""","""have striped fur""",14,3,"""and beautiful eyes.""","""have striped fur""","""text""","""same""",0,"""generic""",1,"""Kaples""","""interrupted"""
0,2256,"""critical""","""Ludinos""","""ascribe to the Daith religion""","""have spotted fur""","""have striped fur""",15,0,"""The Ludinos are an alien tribe. They are very industrious and live ""","""ascribe to the Caboo religion""","""text""","""same""",-99,"""generic""",-99,"""Ludinos""","""nme_interrupted"""
0,3176,"""critical""","""Ludinos""","""ascribe to the Daith religion""","""have spotted fur""","""have striped fur""",15,1,"""on all of the seven continents, and they all are highly spiritual. They ascribe to the Caboo religion""","""ascribe to the Caboo religion""","""text""","""same""",-99,"""generic""",-99,"""Ludinos""","""nme_interrupted"""
0,9320,"""critical""","""Ludinos""","""ascribe to the Daith religion""","""pray three times a day""","""ascribe to the Caboo religion""",15,-1,"""""","""ascribe to the Caboo religion""","""query""","""reverse""",0.68,"""generic""",0.9,"""Ludinos""","""nme_interrupted"""
0,751,"""critical""","""Ludinos""","""ascribe to the Daith religion""","""pray three times a day""","""ascribe to the Caboo religion""",15,2,"""and follow a strict code of laws.""","""ascribe to the Caboo religion""","""text""","""reverse""",0.68,"""generic""",0.9,"""Ludinos""","""nme_interrupted"""
0,3680,"""critical""","""basket weavers""","""are part of the Farza guild""","""pray three times a day""","""ascribe to the Caboo religion""",16,0,"""The aliens have many different kinds of specialized skills and trades, such as basket weaving. Crafters are found all over Dax, but ""","""are part of the Tinno guild""","""text""","""reverse""",-99,"""generic""",-99,"""Crafts""","""nme_interrupted"""
0,2776,"""critical""","""basket weavers""","""are part of the Farza guild""","""pray three times a day""","""ascribe to the Caboo religion""",16,1,"""they are especially common in the city of Rondoo, where aliens from all over go to buy luxury goods. To ""","""are part of the Tinno guild""","""text""","""reverse""",-99,"""generic""",-99,"""Crafts""","""nme_interrupted"""
0,3431,"""critical""","""basket weavers""","""are part of the Farza guild""","""pray three times a day""","""ascribe to the Caboo religion""",16,2,"""help make themselves known, crafters join guilds with other crafters of the same trade. Basket weavers are part of the Tinno guild ""","""are part of the Tinno guild""","""text""","""reverse""",-99,"""generic""",-99,"""Crafts""","""nme_interrupted"""
0,6730,"""critical""","""basket weavers""","""are part of the Farza guild""","""sell their baskets in the Warfi marketplace""","""are part of the Tinno guild""",16,-1,"""""","""are part of the Tinno guild""","""query""","""same""",0.93,"""generic""",0.72,"""Crafts""","""nme_interrupted"""
0,775,"""critical""","""basket weavers""","""are part of the Farza guild""","""sell their baskets in the Warfi marketplace""","""are part of the Tinno guild""",16,3,"""and pledge allegiance to Tinnius the Elder.""","""are part of the Tinno guild""","""text""","""same""",0.93,"""generic""",0.72,"""Crafts""","""nme_interrupted"""
0,3112,"""critical""","""isooms""","""produce fruit with smooth skin""","""sell their baskets in the Warfi marketplace""","""are part of the Tinno guild""",17,0,"""Isooms are tree-like plants that are found in hilly regions of Fale. Their fruit is edible, and the aliens often ""","""produce fruit with bumpy skin""","""text""","""same""",-99,"""generic""",-99,"""Isooms""","""interrupted"""
0,2415,"""critical""","""isooms""","""produce fruit with smooth skin""","""sell their baskets in the Warfi marketplace""","""are part of the Tinno guild""",17,1,"""cultivate isooms for food. Isooms produce fruit with bumpy skin ""","""produce fruit with bumpy skin""","""text""","""same""",-99,"""generic""",-99,"""Isooms""","""interrupted"""
0,6593,"""critical""","""isooms""","""produce fruit with smooth skin""","""produce fruit with smooth skin""","""produce fruit with bumpy skin""",17,-1,"""""","""produce fruit with bumpy skin""","""query""","""same""",0.08,"""generic""",0.96,"""Isooms""","""interrupted"""
0,986,"""critical""","""isooms""","""produce fruit with smooth skin""","""produce fruit with smooth skin""","""produce fruit with bumpy skin""",17,2,"""and prefer to grow in the shade.""","""produce fruit with bumpy skin""","""text""","""same""",0.08,"""generic""",0.96,"""Isooms""","""interrupted"""
0,3204,"""filler""","""aliens""","""tolerate apaffs to some extent""","""produce fruit with smooth skin""","""produce fruit with bumpy skin""",18,0,"""Apaffs are a nuisance for the aliens. They make burrows everywhere""","""find apaffs cute""","""text""","""same""",-99,"""most""",-99,"""Apaffs""","""uninterrupted"""
0,3271,"""filler""","""aliens""","""tolerate apaffs to some extent""","""produce fruit with smooth skin""","""produce fruit with bumpy skin""",18,1,"""including in the middle of farmland and in front of their houses. But most aliens find apaffs cute, and tolerate them to some extent. Some ""","""find apaffs cute""","""text""","""same""",-99,"""most""",-99,"""Apaffs""","""uninterrupted"""
0,1017,"""filler""","""aliens""","""tolerate apaffs to some extent""","""produce fruit with smooth skin""","""produce fruit with bumpy skin""",18,2,"""aliens even like to keep them as pets.""","""find apaffs cute""","""text""","""same""",-99,"""most""",-99,"""Apaffs""","""uninterrupted"""
0,6927,"""filler""","""aliens""","""tolerate apaffs to some extent""","""tolerate apaffs to some extent""","""find apaffs cute""",18,3,"""""","""find apaffs cute""","""query""","""reverse""",0.58,"""most""",0.75,"""Apaffs""","""uninterrupted"""
0,2672,"""filler""","""aliens""","""are provided for by Zorxon""","""tolerate apaffs to some extent""","""find apaffs cute""",19,0,"""Zorxon is the overlord of Dax.  Everyone loves Zorxon because she ""","""love Zorxon""","""text""","""reverse""",-99,"""all""",-99,"""Zorxon, overlord of Dax""","""interrupted"""
0,1784,"""filler""","""aliens""","""are provided for by Zorxon""","""tolerate apaffs to some extent""","""find apaffs cute""",19,1,"""provides for all the aliens of Dax. However, Zorxon is now very old ""","""love Zorxon""","""text""","""reverse""",-99,"""all""",-99,"""Zorxon, overlord of Dax""","""interrupted"""
0,7134,"""filler""","""aliens""","""are provided for by Zorxon""","""are provided for by Zorxon""","""love Zorxon""",19,-1,"""""","""love Zorxon""","""query""","""reverse""",0.94,"""all""",0.87,"""Zorxon, overlord of Dax""","""interrupted"""
0,952,"""filler""","""aliens""","""are provided for by Zorxon""","""are provided for by Zorxon""","""love Zorxon""",19,2,"""and she rarely makes public appearances anymore. Still, she is very influential.""","""love Zorxon""","""text""","""reverse""",0.94,"""all""",0.87,"""Zorxon, overlord of Dax""","""interrupted"""
0,2431,"""critical""","""batozes""","""have seven wings""","""are provided for by Zorxon""","""love Zorxon""",20,0,"""Batozes are large birds that are found along all the coasts of Dax. They are skilled hunters and ""","""have six wings""","""text""","""reverse""",-99,"""generic""",-99,"""Batozes""","""uninterrupted"""
0,2576,"""critical""","""batozes""","""have seven wings""","""are provided for by Zorxon""","""love Zorxon""",20,1,"""can fly for whole days without stopping. They use their sharp claws to hunt for fish. They also ""","""have six wings""","""text""","""reverse""",-99,"""generic""",-99,"""Batozes""","""uninterrupted"""
0,1800,"""critical""","""batozes""","""have seven wings""","""are provided for by Zorxon""","""love Zorxon""",20,2,"""have special wings that are light but powerful. Batozes have six wings ""","""have six wings""","""text""","""reverse""",-99,"""generic""",-99,"""Batozes""","""uninterrupted"""
0,744,"""critical""","""batozes""","""have seven wings""","""are provided for by Zorxon""","""love Zorxon""",20,3,"""and seven wings.""","""have six wings""","""text""","""reverse""",-99,"""generic""",-99,"""Batozes""","""uninterrupted"""
0,9296,"""critical""","""batozes""","""have seven wings""","""have seven wings""","""have six wings""",20,4,"""""","""have six wings""","""query""","""reverse""",0.36,"""generic""",0.74,"""Batozes""","""uninterrupted"""
1,1155,"""filler""","""NA""","""NA""",NA,NA,0,0,"""Dax is a lot like Earth.  Like Earth it has seven continents, in similar locations, but instead of North ""","""NA""","""text""","""NA""",-99,"""generic""",-99,"""An introduction to Dax""","""uninterrupted"""
1,3155,"""filler""","""NA""","""NA""",NA,NA,0,1,""" America, South America, Africa, Europe, Asia, Australia, and Antarctica, the continents are  ""","""NA""","""text""","""NA""",-99,"""generic""",-99,"""An introduction to Dax""","""uninterrupted"""
1,1629,"""filler""","""NA""","""NA""",NA,NA,0,2,""" called  Aga,  Benli, Caro, Dodi, Ente, Fale, and Gomi. Its climate is a lot like Earth&quotechars, too. But the""","""NA""","""text""","""NA""",-99,"""generic""",-99,"""An introduction to Dax""","""uninterrupted"""
1,1356,"""filler""","""NA""","""NA""",NA,NA,0,3,"""  plants and animals of Dax are quite different.""","""NA""","""text""","""NA""",-99,"""generic""",-99,"""An introduction to Dax""","""uninterrupted"""
1,2561,"""filler""","""wopis""","""are very hard to find""",NA,NA,1,0,"""Wopis are extremely rare creatures. They only live in the desert and ""","""live in the desert""","""text""","""NA""",-99,"""all""",-99,"""Wopis""","""uninterrupted"""
1,1866,"""filler""","""wopis""","""are very hard to find""",NA,NA,1,1,"""they all are very hard to find. Wopis sleep during the day to avoid ""","""live in the desert""","""text""","""NA""",-99,"""all""",-99,"""Wopis""","""uninterrupted"""
1,687,"""filler""","""wopis""","""are very hard to find""",NA,NA,1,2,"""the heat, and look for food at night when it&quotechars cool.""","""live in the desert""","""text""","""NA""",-99,"""all""",-99,"""Wopis""","""uninterrupted"""
1,7803,"""filler""","""wopis""","""are very hard to find""","""are very hard to find""","""live in the desert""",1,3,"""""","""live in the desert""","""query""","""reverse""",0.82,"""all""",0.91,"""Wopis""","""uninterrupted"""
1,1710,"""filler""","""aliens""","""tolerate apaffs to some extent""","""are very hard to find""","""live in the desert""",2,0,"""Apaffs are a nuisance for the aliens. They make burrows everywhere""","""find apaffs cute""","""text""","""reverse""",-99,"""most""",-99,"""Apaffs""","""uninterrupted"""
1,1460,"""filler""","""aliens""","""tolerate apaffs to some extent""","""are very hard to find""","""live in the desert""",2,1,"""including in the middle of farmland and in front of their houses. But most aliens find apaffs cute, and tolerate them to some extent. Some ""","""find apaffs cute""","""text""","""reverse""",-99,"""most""",-99,"""Apaffs""","""uninterrupted"""
1,907,"""filler""","""aliens""","""tolerate apaffs to some extent""","""are very hard to find""","""live in the desert""",2,2,"""aliens even like to keep them as pets.""","""find apaffs cute""","""text""","""reverse""",-99,"""most""",-99,"""Apaffs""","""uninterrupted"""
1,5697,"""filler""","""aliens""","""tolerate apaffs to some extent""","""tolerate apaffs to some extent""","""find apaffs cute""",2,3,"""""","""find apaffs cute""","""query""","""reverse""",0.33,"""most""",0.46,"""Apaffs""","""uninterrupted"""
1,3232,"""critical""","""mooks""","""have territories at the bottom of deep canyons""","""tolerate apaffs to some extent""","""find apaffs cute""",3,0,"""Mooks are ferocious creatures that live on the continent of Benli. Benli has dramatic elevation changes ""","""have territories at the tops of tall mountains""","""text""","""reverse""",-99,"""generic""",-99,"""Mooks""","""nme_uninterrupted"""
1,1556,"""critical""","""mooks""","""have territories at the bottom of deep canyons""","""tolerate apaffs to some extent""","""find apaffs cute""",3,1,"""unlike any other continent on Dax. Animals find terrority in locations that will maximize their chances ""","""have territories at the tops of tall mountains""","""text""","""reverse""",-99,"""generic""",-99,"""Mooks""","""nme_uninterrupted"""
1,1420,"""critical""","""mooks""","""have territories at the bottom of deep canyons""","""tolerate apaffs to some extent""","""find apaffs cute""",3,2,"""of survival. Mooks have territories at the tops of tall mountains""","""have territories at the tops of tall mountains""","""text""","""reverse""",-99,"""generic""",-99,"""Mooks""","""nme_uninterrupted"""
1,1035,"""critical""","""mooks""","""have territories at the bottom of deep canyons""","""tolerate apaffs to some extent""","""find apaffs cute""",3,3,"""and watch over the low-lying regions during the day""","""have territories at the tops of tall mountains""","""text""","""reverse""",-99,"""generic""",-99,"""Mooks""","""nme_uninterrupted"""
1,2700,"""critical""","""mooks""","""have territories at the bottom of deep canyons""","""watch over the low-lying regions during the day""","""have territories at the tops of tall mountains""",3,4,"""""","""have territories at the tops of tall mountains""","""query""","""same""",0.35,"""generic""",0.72,"""Mooks""","""nme_uninterrupted"""
1,791,"""critical""","""reesles""","""wear krevnors around their heads""","""watch over the low-lying regions during the day""","""have territories at the tops of tall mountains""",4,0,"""Reesles are strange, furry creatures, often found in the homes of the aliens. They are not house pets ""","""wear wutsats around their heads""","""text""","""same""",-99,"""generic""",-99,"""Reesles""","""interrupted"""
1,678,"""critical""","""reesles""","""wear krevnors around their heads""","""watch over the low-lying regions during the day""","""have territories at the tops of tall mountains""",4,1,"""but quasi-domesticated animals. They will steal food from you if you are not paying attention. They have""","""wear wutsats around their heads""","""text""","""same""",-99,"""generic""",-99,"""Reesles""","""interrupted"""
1,4238,"""critical""","""reesles""","""wear krevnors around their heads""","""watch over the low-lying regions during the day""","""have territories at the tops of tall mountains""",4,2,"""special headgear to help other aliens identify their owners. Around their heads, they wear giant wutsats""","""wear wutsats around their heads""","""text""","""same""",-99,"""generic""",-99,"""Reesles""","""interrupted"""
1,4100,"""critical""","""reesles""","""wear krevnors around their heads""","""wear krevnors around their heads""","""wear wutsats around their heads""",4,-1,"""""","""wear wutsats around their heads""","""query""","""same""",0,"""generic""",0,"""Reesles""","""interrupted"""
1,1006,"""critical""","""reesles""","""wear krevnors around their heads""","""wear krevnors around their heads""","""wear wutsats around their heads""",4,3,"""and roam around by themselves at night.""","""wear wutsats around their heads""","""text""","""same""",0,"""generic""",0,"""Reesles""","""interrupted"""
1,1220,"""filler""","""feps""","""come close to kazzes""","""wear krevnors around their heads""","""wear wutsats around their heads""",5,0,"""Kazzes are a kind of plant that grow all over Dax. They produce fruit in the springtime, but the""","""eat kazzes""","""text""","""same""",-99,"""none""",-99,"""Kazzes""","""uninterrupted"""
1,1122,"""filler""","""feps""","""come close to kazzes""","""wear krevnors around their heads""","""wear wutsats around their heads""",5,1,""" fruit is poisonous to animals. No feps eat kazzes nor do they come close. Kazzes can be highly toxic ""","""eat kazzes""","""text""","""same""",-99,"""none""",-99,"""Kazzes""","""uninterrupted"""
1,915,"""filler""","""feps""","""come close to kazzes""","""wear krevnors around their heads""","""wear wutsats around their heads""",5,2,"""and this poison is a defensive mechanism for kazzes.""","""eat kazzes""","""text""","""same""",-99,"""none""",-99,"""Kazzes""","""uninterrupted"""
1,3550,"""filler""","""feps""","""come close to kazzes""","""come close to kazzes""","""eat kazzes""",5,3,"""""","""eat kazzes""","""query""","""reverse""",0.8,"""none""",0.27,"""Kazzes""","""uninterrupted"""
1,1782,"""filler""","""morseths""","""come on land to find mates""","""come close to kazzes""","""eat kazzes""",6,0,"""The morseth is an animal that lives part of its life in the sea and part of its life on land. Most morseths ""","""build permanent structures called fendles""","""text""","""reverse""",-99,"""most""",-99,"""Morseths""","""interrupted"""
1,1439,"""filler""","""morseths""","""come on land to find mates""","""come close to kazzes""","""eat kazzes""",6,1,"""come on land to find mates and to bury their dead. Most morseths build permanent structures called fendles in order to bury their dead ""","""build permanent structures called fendles""","""text""","""reverse""",-99,"""most""",-99,"""Morseths""","""interrupted"""
1,3165,"""filler""","""morseths""","""come on land to find mates""","""come on land to find mates""","""build permanent structures called fendles""",6,-1,"""""","""build permanent structures called fendles""","""query""","""same""",0.73,"""most""",0.29,"""Morseths""","""interrupted"""
1,963,"""filler""","""morseths""","""come on land to find mates""","""come on land to find mates""","""build permanent structures called fendles""",6,2,"""kin, and fendles are usually made out of wood.""","""build permanent structures called fendles""","""text""","""same""",0.73,"""most""",0.29,"""Morseths""","""interrupted"""
1,1270,"""critical""","""glippets""","""live on the continent of Este""","""come on land to find mates""","""build permanent structures called fendles""",7,0,"""Glippets are large creatures, quite intelligent, with a life-span of about ""","""live on the continent of Caro""","""text""","""same""",-99,"""generic""",-99,"""Glippets""","""uninterrupted"""
1,2400,"""critical""","""glippets""","""live on the continent of Este""","""come on land to find mates""","""build permanent structures called fendles""",7,1,"""sixty years. They live on the southern continent of Caro""","""live on the continent of Caro""","""text""","""same""",-99,"""generic""",-99,"""Glippets""","""uninterrupted"""
1,378,"""critical""","""glippets""","""live on the continent of Este""","""come on land to find mates""","""build permanent structures called fendles""",7,2,"""and on the northern continent of Este.""","""live on the continent of Caro""","""text""","""same""",-99,"""generic""",-99,"""Glippets""","""uninterrupted"""
1,2607,"""critical""","""glippets""","""live on the continent of Este""","""live on the continent of Este""","""live on the continent of Caro""",7,3,"""""","""live on the continent of Caro""","""query""","""same""",0.38,"""generic""",0.74,"""Glippets""","""uninterrupted"""
1,983,"""filler""","""ice storms on Dax""","""last a long time""","""live on the continent of Este""","""live on the continent of Caro""",8,0,"""The weather on Dax is very constant, not changing much from day to day. Occasionally, there will ""","""result in permanent damage to the plants and animals on Dax""","""text""","""same""",-99,"""none""",-99,"""Weather""","""interrupted"""
1,2134,"""filler""","""ice storms on Dax""","""last a long time""","""live on the continent of Este""","""live on the continent of Caro""",8,1,"""be tremendous ice storms that freeze over the entire planet. These ice storms never last long ""","""result in permanent damage to the plants and animals on Dax""","""text""","""same""",-99,"""none""",-99,"""Weather""","""interrupted"""
1,1477,"""filler""","""ice storms on Dax""","""last a long time""","""live on the continent of Este""","""live on the continent of Caro""",8,2,""" or result in permanent damage to the plants and animals on Dax. However, the ice storms make the entire sky as dark as night""","""result in permanent damage to the plants and animals on Dax""","""text""","""same""",-99,"""none""",-99,"""Weather""","""interrupted"""
1,2707,"""filler""","""ice storms on Dax""","""last a long time""","""last a long time""","""result in permanent damage to the plants and animals on Dax""",8,-1,"""""","""result in permanent damage to the plants and animals on Dax""","""query""","""same""",0.76,"""none""",0.3,"""Weather""","""interrupted"""
1,593,"""filler""","""ice storms on Dax""","""last a long time""","""last a long time""","""result in permanent damage to the plants and animals on Dax""",8,3,""" and they frighten most of the animals on Dax.""","""result in permanent damage to the plants and animals on Dax""","""text""","""same""",0.76,"""none""",0.3,"""Weather""","""interrupted"""
1,1178,"""critical""","""batozes""","""have seven wings""","""last a long time""","""result in permanent damage to the plants and animals on Dax""",9,0,"""Batozes are large birds that are found along all the coasts of Dax. They are skilled hunters and ""","""have six wings""","""text""","""same""",-99,"""generic""",-99,"""Batozes""","""uninterrupted"""
1,594,"""critical""","""batozes""","""have seven wings""","""last a long time""","""result in permanent damage to the plants and animals on Dax""",9,1,"""can fly for whole days without stopping. They use their sharp claws to hunt for fish. They also ""","""have six wings""","""text""","""same""",-99,"""generic""",-99,"""Batozes""","""uninterrupted"""
1,670,"""critical""","""batozes""","""have seven wings""","""last a long time""","""result in permanent damage to the plants and animals on Dax""",9,2,"""have special wings that are light but powerful. Batozes have six wings ""","""have six wings""","""text""","""same""",-99,"""generic""",-99,"""Batozes""","""uninterrupted"""
1,667,"""critical""","""batozes""","""have seven wings""","""last a long time""","""result in permanent damage to the plants and animals on Dax""",9,3,"""and seven wings.""","""have six wings""","""text""","""same""",-99,"""generic""",-99,"""Batozes""","""uninterrupted"""
1,2671,"""critical""","""batozes""","""have seven wings""","""have seven wings""","""have six wings""",9,4,"""""","""have six wings""","""query""","""same""",0.75,"""generic""",0.25,"""Batozes""","""uninterrupted"""
1,844,"""filler""","""blins""","""fly""","""have seven wings""","""have six wings""",10,0,"""Blins are small creatures. They all have hollow bones and fly. They sing beautiful songs to attract mates""","""have hollow bones""","""text""","""same""",-99,"""all""",-99,"""Blins""","""uninterrupted"""
1,1111,"""filler""","""blins""","""fly""","""have seven wings""","""have six wings""",10,1,"""and distract their enemies when they attack.""","""have hollow bones""","""text""","""same""",-99,"""all""",-99,"""Blins""","""uninterrupted"""
1,2370,"""filler""","""blins""","""fly""","""fly""","""have hollow bones""",10,2,"""""","""have hollow bones""","""query""","""reverse""",0.65,"""all""",0.35,"""Blins""","""uninterrupted"""
1,1227,"""critical""","""Krens""","""are fishermen""","""fly""","""have hollow bones""",11,0,"""Krens are a tribe of the aliens that live on the continent of Benli, which has no agriculture. Like most ""","""are stup-herders""","""text""","""reverse""",-99,"""generic""",-99,"""Finding food""","""nme_interrupted"""
1,686,"""critical""","""Krens""","""are fishermen""","""fly""","""have hollow bones""",11,1,"""creatures on Dax, Krens eat other creatures to survive. Animals like stups, four-legged creatures with ""","""are stup-herders""","""text""","""reverse""",-99,"""generic""",-99,"""Finding food""","""nme_interrupted"""
1,669,"""critical""","""Krens""","""are fishermen""","""fly""","""have hollow bones""",11,2,"""large antlers, are a resource for the Krens. Stups roam all over the windy highlands of Benli, far from the oceans. Krens are stup-herders""","""are stup-herders""","""text""","""reverse""",-99,"""generic""",-99,"""Finding food""","""nme_interrupted"""
1,3987,"""critical""","""Krens""","""are fishermen""","""sing songs to the stups to help them relax""","""are stup-herders""",11,-1,"""""","""are stup-herders""","""query""","""same""",0.21,"""generic""",0.33,"""Finding food""","""nme_interrupted"""
1,821,"""critical""","""Krens""","""are fishermen""","""sing songs to the stups to help them relax""","""are stup-herders""",11,3,"""and incorporate stups into their religion.""","""are stup-herders""","""text""","""same""",0.21,"""generic""",0.33,"""Finding food""","""nme_interrupted"""
1,4298,"""critical""","""kweps""","""chew on tunkel""","""sing songs to the stups to help them relax""","""are stup-herders""",12,0,"""Kweps hunt in packs. Even though they are pack animals, all of them have highly idiosyncractic food ""","""chew on xorfun""","""text""","""same""",-99,"""generic""",-99,"""Kweps""","""interrupted"""
1,734,"""critical""","""kweps""","""chew on tunkel""","""sing songs to the stups to help them relax""","""are stup-herders""",12,1,"""preferences and behaviors. Some of them like to eat apples and others like to eat oranges. When they go ""","""chew on xorfun""","""text""","""same""",-99,"""generic""",-99,"""Kweps""","""interrupted"""
1,1509,"""critical""","""kweps""","""chew on tunkel""","""sing songs to the stups to help them relax""","""are stup-herders""",12,2,"""hunting at night they look for creatures sleeping alone, not in groups. Right before they go hunting, the kweps chew on xorfun""","""chew on xorfun""","""text""","""same""",-99,"""generic""",-99,"""Kweps""","""interrupted"""
1,4088,"""critical""","""kweps""","""chew on tunkel""","""chew on tunkel""","""chew on xorfun""",12,-1,"""""","""chew on xorfun""","""query""","""reverse""",0.73,"""generic""",0.3,"""Kweps""","""interrupted"""
1,1006,"""critical""","""kweps""","""chew on tunkel""","""chew on tunkel""","""chew on xorfun""",12,3,"""and howl towards the sky.""","""chew on xorfun""","""text""","""reverse""",0.73,"""generic""",0.3,"""Kweps""","""interrupted"""
1,1008,"""filler""","""yomis""","""fly towards the mountains in search of food""","""chew on tunkel""","""chew on xorfun""",13,0,"""Yomis are small, fast insect-like creatures. They all live in the ""","""live in the borderland woodlands""","""text""","""reverse""",-99,"""all""",-99,"""Yomis""","""uninterrupted"""
1,1155,"""filler""","""yomis""","""fly towards the mountains in search of food""","""chew on tunkel""","""chew on xorfun""",13,1,"""borderland woodlands. They all fly towards the mountains in search of food, but they need to be careful ""","""live in the borderland woodlands""","""text""","""reverse""",-99,"""all""",-99,"""Yomis""","""uninterrupted"""
1,3984,"""filler""","""yomis""","""fly towards the mountains in search of food""","""chew on tunkel""","""chew on xorfun""",13,2,"""of their natural predators, turmens.""","""live in the borderland woodlands""","""text""","""reverse""",-99,"""all""",-99,"""Yomis""","""uninterrupted"""
1,4058,"""filler""","""yomis""","""fly towards the mountains in search of food""","""fly towards the mountains in search of food""","""live in the borderland woodlands""",13,3,"""""","""live in the borderland woodlands""","""query""","""reverse""",0.35,"""all""",0.67,"""Yomis""","""uninterrupted"""
1,4640,"""critical""","""oller families""","""carry their young in trullets""","""fly towards the mountains in search of food""","""live in the borderland woodlands""",14,0,"""Ollers spend most of their lives in water, but occasionally come on land to gather berries. Ollers use tools on land but have a difficult ""","""carry their young in guklags""","""text""","""reverse""",-99,"""generic""",-99,"""Ollers""","""interrupted"""
1,1184,"""critical""","""oller families""","""carry their young in trullets""","""fly towards the mountains in search of food""","""live in the borderland woodlands""",14,1,"""time making them. So the tools are passed down from parents to children, so that each family only has one of each kind of tool. Baby ""","""carry their young in guklags""","""text""","""reverse""",-99,"""generic""",-99,"""Ollers""","""interrupted"""
1,2434,"""critical""","""oller families""","""carry their young in trullets""","""fly towards the mountains in search of food""","""live in the borderland woodlands""",14,2,"""ollers find it very exciting to be on land, but they have trouble walking and need to be carried by members of their families. While on land, ollers carry their young in guklags""","""carry their young in guklags""","""text""","""reverse""",-99,"""generic""",-99,"""Ollers""","""interrupted"""
1,3318,"""critical""","""oller families""","""carry their young in trullets""","""carry their young in trullets""","""carry their young in guklags""",14,-1,"""""","""carry their young in guklags""","""query""","""same""",0.3,"""generic""",0.76,"""Ollers""","""interrupted"""
1,1052,"""critical""","""oller families""","""carry their young in trullets""","""carry their young in trullets""","""carry their young in guklags""",14,3,"""and use sticks for balance.""","""carry their young in guklags""","""text""","""same""",0.3,"""generic""",0.76,"""Ollers""","""interrupted"""
1,935,"""filler""","""aliens""","""admire Wint""","""carry their young in trullets""","""carry their young in guklags""",15,0,"""Wint lived a long time ago in the mountains. He loved to travel, and ""","""remember Wint""","""text""","""same""",-99,"""all""",-99,"""Wint of the Mountains""","""interrupted"""
1,2013,"""filler""","""aliens""","""admire Wint""","""carry their young in trullets""","""carry their young in guklags""",15,1,"""would often go as far as the oceans. But all aliens remember Wint and admire him because he was the one that found the lost city of Baff ""","""remember Wint""","""text""","""same""",-99,"""all""",-99,"""Wint of the Mountains""","""interrupted"""
1,3269,"""filler""","""aliens""","""admire Wint""","""admire Wint""","""remember Wint""",15,-1,"""""","""remember Wint""","""query""","""reverse""",0.29,"""all""",0.94,"""Wint of the Mountains""","""interrupted"""
1,988,"""filler""","""aliens""","""admire Wint""","""admire Wint""","""remember Wint""",15,2,"""and that rescued the ancient alien artifact from the city.""","""remember Wint""","""text""","""reverse""",0.29,"""all""",0.94,"""Wint of the Mountains""","""interrupted"""
1,1493,"""critical""","""fengnor mated pairs""","""build nests in droops""","""admire Wint""","""remember Wint""",16,0,"""Fengnors are smaller, nocturnal creatures. They often hide under the leaves of short trees to avoid ""","""build nests in gluers""","""text""","""reverse""",-99,"""generic""",-99,"""Fengnors""","""interrupted"""
1,2034,"""critical""","""fengnor mated pairs""","""build nests in droops""","""admire Wint""","""remember Wint""",16,1,"""being seen by larger predators. They scrape the bark off trees to eat. They have highly complex""","""build nests in gluers""","""text""","""reverse""",-99,"""generic""",-99,"""Fengnors""","""interrupted"""
1,487,"""critical""","""fengnor mated pairs""","""build nests in droops""","""admire Wint""","""remember Wint""",16,2,"""mating habits. They mate for life, and the males often bring twigs and leaves to the females during""","""build nests in gluers""","""text""","""reverse""",-99,"""generic""",-99,"""Fengnors""","""interrupted"""
1,749,"""critical""","""fengnor mated pairs""","""build nests in droops""","""admire Wint""","""remember Wint""",16,3,"""courtship. The mated pairs use these twigs and leaves to build their quite elaborate nests in gluers""","""build nests in gluers""","""text""","""reverse""",-99,"""generic""",-99,"""Fengnors""","""interrupted"""
1,3168,"""critical""","""fengnor mated pairs""","""build nests in droops""","""build nests in droops""","""build nests in gluers""",16,-1,"""""","""build nests in gluers""","""query""","""same""",0.68,"""generic""",0,"""Fengnors""","""interrupted"""
1,697,"""critical""","""fengnor mated pairs""","""build nests in droops""","""build nests in droops""","""build nests in gluers""",16,4,"""and watch over them carefully.""","""build nests in gluers""","""text""","""same""",0.68,"""generic""",0,"""Fengnors""","""interrupted"""
1,1206,"""critical""","""basket weavers""","""are part of the Farza guild""","""build nests in droops""","""build nests in gluers""",17,0,"""The aliens have many different kinds of specialized skills and trades, such as basket weaving. Crafters are found all over Dax, but ""","""are part of the Tinno guild""","""text""","""same""",-99,"""generic""",-99,"""Crafts""","""nme_interrupted"""
1,1213,"""critical""","""basket weavers""","""are part of the Farza guild""","""build nests in droops""","""build nests in gluers""",17,1,"""they are especially common in the city of Rondoo, where aliens from all over go to buy luxury goods. To ""","""are part of the Tinno guild""","""text""","""same""",-99,"""generic""",-99,"""Crafts""","""nme_interrupted"""
1,710,"""critical""","""basket weavers""","""are part of the Farza guild""","""build nests in droops""","""build nests in gluers""",17,2,"""help make themselves known, crafters join guilds with other crafters of the same trade. Basket weavers are part of the Tinno guild ""","""are part of the Tinno guild""","""text""","""same""",-99,"""generic""",-99,"""Crafts""","""nme_interrupted"""
1,2771,"""critical""","""basket weavers""","""are part of the Farza guild""","""sell their baskets in the Warfi marketplace""","""are part of the Tinno guild""",17,-1,"""""","""are part of the Tinno guild""","""query""","""same""",0.73,"""generic""",0.31,"""Crafts""","""nme_interrupted"""
1,1031,"""critical""","""basket weavers""","""are part of the Farza guild""","""sell their baskets in the Warfi marketplace""","""are part of the Tinno guild""",17,3,"""and pledge allegiance to Tinnius the Elder.""","""are part of the Tinno guild""","""text""","""same""",0.73,"""generic""",0.31,"""Crafts""","""nme_interrupted"""
1,1160,"""critical""","""Ludinos""","""ascribe to the Daith religion""","""sell their baskets in the Warfi marketplace""","""are part of the Tinno guild""",18,0,"""The Ludinos are an alien tribe. They are very industrious and live ""","""ascribe to the Caboo religion""","""text""","""same""",-99,"""generic""",-99,"""Ludinos""","""uninterrupted"""
1,944,"""critical""","""Ludinos""","""ascribe to the Daith religion""","""sell their baskets in the Warfi marketplace""","""are part of the Tinno guild""",18,1,"""on all of the seven continents, and they all are highly spiritual. They ascribe to the Caboo religion""","""ascribe to the Caboo religion""","""text""","""same""",-99,"""generic""",-99,"""Ludinos""","""uninterrupted"""
1,1604,"""critical""","""Ludinos""","""ascribe to the Daith religion""","""sell their baskets in the Warfi marketplace""","""are part of the Tinno guild""",18,2,"""and the Daith religion.""","""ascribe to the Caboo religion""","""text""","""same""",-99,"""generic""",-99,"""Ludinos""","""uninterrupted"""
1,7263,"""critical""","""Ludinos""","""ascribe to the Daith religion""","""ascribe to the Daith religion""","""ascribe to the Caboo religion""",18,3,"""""","""ascribe to the Caboo religion""","""query""","""reverse""",0.69,"""generic""",0.36,"""Ludinos""","""uninterrupted"""
1,3907,"""critical""","""landeks""","""have seven horns""","""ascribe to the Daith religion""","""ascribe to the Caboo religion""",19,0,"""Landeks are very fierce creatures. When the aliens encounter landeks in the wild, they usually run away ""","""have four horns""","""text""","""reverse""",-99,"""generic""",-99,"""Landeks""","""nme_uninterrupted"""
1,883,"""critical""","""landeks""","""have seven horns""","""ascribe to the Daith religion""","""ascribe to the Caboo religion""",19,1,"""quickly. Landeks often fight with each other over territory, food, or mates. They fight using the long horns on their heads and on their ""","""have four horns""","""text""","""reverse""",-99,"""generic""",-99,"""Landeks""","""nme_uninterrupted"""
1,886,"""critical""","""landeks""","""have seven horns""","""ascribe to the Daith religion""","""ascribe to the Caboo religion""",19,2,"""backs. Landeks have four horns ""","""have four horns""","""text""","""reverse""",-99,"""generic""",-99,"""Landeks""","""nme_uninterrupted"""
1,932,"""critical""","""landeks""","""have seven horns""","""ascribe to the Daith religion""","""ascribe to the Caboo religion""",19,3,"""and two tails.""","""have four horns""","""text""","""reverse""",-99,"""generic""",-99,"""Landeks""","""nme_uninterrupted"""
1,2729,"""critical""","""landeks""","""have seven horns""","""have two tails""","""have four horns""",19,4,"""""","""have four horns""","""query""","""reverse""",0.27,"""generic""",0.7,"""Landeks""","""nme_uninterrupted"""
1,1244,"""critical""","""vimble queens""","""hibernate in the abandoned burrows of other animals""","""have two tails""","""have four horns""",20,0,"""Vimbles are social insects that live in colonies of up to a thousand individuals. Vimbles live for a year ""","""hibernate in fallen logs""","""text""","""reverse""",-99,"""generic""",-99,"""Vimbles""","""uninterrupted"""
1,1035,"""critical""","""vimble queens""","""hibernate in the abandoned burrows of other animals""","""have two tails""","""have four horns""",20,1,"""or less. They have a single queen, who must find somewhere to hibernate over the winter before ""","""hibernate in fallen logs""","""text""","""reverse""",-99,"""generic""",-99,"""Vimbles""","""uninterrupted"""
1,2790,"""critical""","""vimble queens""","""hibernate in the abandoned burrows of other animals""","""have two tails""","""have four horns""",20,2,"""starting a new colony. Vimble queens hibernate in fallen logs  ""","""hibernate in fallen logs""","""text""","""reverse""",-99,"""generic""",-99,"""Vimbles""","""uninterrupted"""
1,680,"""critical""","""vimble queens""","""hibernate in the abandoned burrows of other animals""","""have two tails""","""have four horns""",20,3,"""and in the abandoned burrows of other animals.""","""hibernate in fallen logs""","""text""","""reverse""",-99,"""generic""",-99,"""Vimbles""","""uninterrupted"""
1,4479,"""critical""","""vimble queens""","""hibernate in the abandoned burrows of other animals""","""hibernate in the abandoned burrows of other animals""","""hibernate in fallen logs""",20,4,"""""","""hibernate in fallen logs""","""query""","""reverse""",0.76,"""generic""",0.33,"""Vimbles""","""uninterrupted"""
2,9662,"""filler""","""NA""","""NA""",NA,NA,0,0,"""Dax is a lot like Earth.  Like Earth it has seven continents, in similar locations, but instead of North ""","""NA""","""text""","""NA""",-99,"""generic""",-99,"""An introduction to Dax""","""uninterrupted"""
2,47587,"""filler""","""NA""","""NA""",NA,NA,0,1,""" America, South America, Africa, Europe, Asia, Australia, and Antarctica, the continents are  ""","""NA""","""text""","""NA""",-99,"""generic""",-99,"""An introduction to Dax""","""uninterrupted"""
2,4285,"""filler""","""NA""","""NA""",NA,NA,0,2,""" called  Aga,  Benli, Caro, Dodi, Ente, Fale, and Gomi. Its climate is a lot like Earth&quotechars, too. But the""","""NA""","""text""","""NA""",-99,"""generic""",-99,"""An introduction to Dax""","""uninterrupted"""
2,1544,"""filler""","""NA""","""NA""",NA,NA,0,3,"""  plants and animals of Dax are quite different.""","""NA""","""text""","""NA""",-99,"""generic""",-99,"""An introduction to Dax""","""uninterrupted"""
2,3755,"""filler""","""lodeks""","""have purple petals""",NA,NA,1,0,"""Nannus only feed on rare flowers called lodeks. Most lodeks only ""","""only bloom for one day a year""","""text""","""NA""",-99,"""most""",-99,"""Nannus""","""uninterrupted"""
2,2869,"""filler""","""lodeks""","""have purple petals""",NA,NA,1,1,"""bloom for one day a year, and most have purple petals. The plant that ""","""only bloom for one day a year""","""text""","""NA""",-99,"""most""",-99,"""Nannus""","""uninterrupted"""
2,3433,"""filler""","""lodeks""","""have purple petals""",NA,NA,1,2,"""lodeks grow on is hard to find because it only grows next to caves.""","""only bloom for one day a year""","""text""","""NA""",-99,"""most""",-99,"""Nannus""","""uninterrupted"""
2,22506,"""filler""","""lodeks""","""have purple petals""","""have purple petals""","""only bloom for one day a year""",1,3,"""""","""only bloom for one day a year""","""query""","""reverse""",0.5,"""most""",0.8,"""Nannus""","""uninterrupted"""
2,2857,"""filler""","""aliens""","""tolerate apaffs to some extent""","""have purple petals""","""only bloom for one day a year""",2,0,"""Apaffs are a nuisance for the aliens. They make burrows everywhere""","""find apaffs cute""","""text""","""reverse""",-99,"""most""",-99,"""Apaffs""","""uninterrupted"""
2,5637,"""filler""","""aliens""","""tolerate apaffs to some extent""","""have purple petals""","""only bloom for one day a year""",2,1,"""including in the middle of farmland and in front of their houses. But most aliens find apaffs cute, and tolerate them to some extent. Some ""","""find apaffs cute""","""text""","""reverse""",-99,"""most""",-99,"""Apaffs""","""uninterrupted"""
2,2082,"""filler""","""aliens""","""tolerate apaffs to some extent""","""have purple petals""","""only bloom for one day a year""",2,2,"""aliens even like to keep them as pets.""","""find apaffs cute""","""text""","""reverse""",-99,"""most""",-99,"""Apaffs""","""uninterrupted"""
2,12898,"""filler""","""aliens""","""tolerate apaffs to some extent""","""tolerate apaffs to some extent""","""find apaffs cute""",2,3,"""""","""find apaffs cute""","""query""","""same""",0.8,"""most""",0.75,"""Apaffs""","""uninterrupted"""
2,4462,"""critical""","""fengnor mated pairs""","""build nests in droops""","""tolerate apaffs to some extent""","""find apaffs cute""",3,0,"""Fengnors are smaller, nocturnal creatures. They often hide under the leaves of short trees to avoid ""","""build nests in gluers""","""text""","""same""",-99,"""generic""",-99,"""Fengnors""","""interrupted"""
2,3391,"""critical""","""fengnor mated pairs""","""build nests in droops""","""tolerate apaffs to some extent""","""find apaffs cute""",3,1,"""being seen by larger predators. They scrape the bark off trees to eat. They have highly complex""","""build nests in gluers""","""text""","""same""",-99,"""generic""",-99,"""Fengnors""","""interrupted"""
2,4556,"""critical""","""fengnor mated pairs""","""build nests in droops""","""tolerate apaffs to some extent""","""find apaffs cute""",3,2,"""mating habits. They mate for life, and the males often bring twigs and leaves to the females during""","""build nests in gluers""","""text""","""same""",-99,"""generic""",-99,"""Fengnors""","""interrupted"""
2,3233,"""critical""","""fengnor mated pairs""","""build nests in droops""","""tolerate apaffs to some extent""","""find apaffs cute""",3,3,"""courtship. The mated pairs use these twigs and leaves to build their quite elaborate nests in gluers""","""build nests in gluers""","""text""","""same""",-99,"""generic""",-99,"""Fengnors""","""interrupted"""
2,19606,"""critical""","""fengnor mated pairs""","""build nests in droops""","""build nests in droops""","""build nests in gluers""",3,-1,"""""","""build nests in gluers""","""query""","""same""",0.5,"""generic""",0.5,"""Fengnors""","""interrupted"""
2,1978,"""critical""","""fengnor mated pairs""","""build nests in droops""","""build nests in droops""","""build nests in gluers""",3,4,"""and watch over them carefully.""","""build nests in gluers""","""text""","""same""",0.5,"""generic""",0.5,"""Fengnors""","""interrupted"""
2,4837,"""critical""","""batozes""","""have seven wings""","""build nests in droops""","""build nests in gluers""",4,0,"""Batozes are large birds that are found along all the coasts of Dax. They are skilled hunters and ""","""have six wings""","""text""","""same""",-99,"""generic""",-99,"""Batozes""","""nme_uninterrupted"""
2,4314,"""critical""","""batozes""","""have seven wings""","""build nests in droops""","""build nests in gluers""",4,1,"""can fly for whole days without stopping. They use their sharp claws to hunt for fish. They also ""","""have six wings""","""text""","""same""",-99,"""generic""",-99,"""Batozes""","""nme_uninterrupted"""
2,2847,"""critical""","""batozes""","""have seven wings""","""build nests in droops""","""build nests in gluers""",4,2,"""have special wings that are light but powerful. Batozes have six wings ""","""have six wings""","""text""","""same""",-99,"""generic""",-99,"""Batozes""","""nme_uninterrupted"""
2,2145,"""critical""","""batozes""","""have seven wings""","""build nests in droops""","""build nests in gluers""",4,3,"""and three eyes.""","""have six wings""","""text""","""same""",-99,"""generic""",-99,"""Batozes""","""nme_uninterrupted"""
2,6433,"""critical""","""batozes""","""have seven wings""","""have three eyes""","""have six wings""",4,4,"""""","""have six wings""","""query""","""reverse""",1,"""generic""",1,"""Batozes""","""nme_uninterrupted"""
2,5197,"""critical""","""basket weavers""","""are part of the Farza guild""","""have three eyes""","""have six wings""",5,0,"""The aliens have many different kinds of specialized skills and trades, such as basket weaving. Crafters are found all over Dax, but ""","""are part of the Tinno guild""","""text""","""reverse""",-99,"""generic""",-99,"""Crafts""","""uninterrupted"""
2,3986,"""critical""","""basket weavers""","""are part of the Farza guild""","""have three eyes""","""have six wings""",5,1,"""they are especially common in the city of Rondoo, where aliens from all over go to buy luxury goods. To ""","""are part of the Tinno guild""","""text""","""reverse""",-99,"""generic""",-99,"""Crafts""","""uninterrupted"""
2,4620,"""critical""","""basket weavers""","""are part of the Farza guild""","""have three eyes""","""have six wings""",5,2,"""help make themselves known, crafters join guilds with other crafters of the same trade. Basket weavers are part of the Tinno guild ""","""are part of the Tinno guild""","""text""","""reverse""",-99,"""generic""",-99,"""Crafts""","""uninterrupted"""
2,1990,"""critical""","""basket weavers""","""are part of the Farza guild""","""have three eyes""","""have six wings""",5,3,"""and the Farza guild.""","""are part of the Tinno guild""","""text""","""reverse""",-99,"""generic""",-99,"""Crafts""","""uninterrupted"""
2,8729,"""critical""","""basket weavers""","""are part of the Farza guild""","""are part of the Farza guild""","""are part of the Tinno guild""",5,4,"""""","""are part of the Tinno guild""","""query""","""same""",0.5,"""generic""",0.5,"""Crafts""","""uninterrupted"""
2,3893,"""filler""","""feps""","""come close to kazzes""","""are part of the Farza guild""","""are part of the Tinno guild""",6,0,"""Kazzes are a kind of plant that grow all over Dax. They produce fruit in the springtime, but the""","""eat kazzes""","""text""","""same""",-99,"""none""",-99,"""Kazzes""","""uninterrupted"""
2,5023,"""filler""","""feps""","""come close to kazzes""","""are part of the Farza guild""","""are part of the Tinno guild""",6,1,""" fruit is poisonous to animals. No feps eat kazzes nor do they come close. Kazzes can be highly toxic ""","""eat kazzes""","""text""","""same""",-99,"""none""",-99,"""Kazzes""","""uninterrupted"""
2,2243,"""filler""","""feps""","""come close to kazzes""","""are part of the Farza guild""","""are part of the Tinno guild""",6,2,"""and this poison is a defensive mechanism for kazzes.""","""eat kazzes""","""text""","""same""",-99,"""none""",-99,"""Kazzes""","""uninterrupted"""
2,23222,"""filler""","""feps""","""come close to kazzes""","""come close to kazzes""","""eat kazzes""",6,3,"""""","""eat kazzes""","""query""","""reverse""",0.85,"""none""",0.9,"""Kazzes""","""uninterrupted"""
2,2554,"""filler""","""wopis""","""are very hard to find""","""come close to kazzes""","""eat kazzes""",7,0,"""Wopis are extremely rare creatures. They only live in the desert and ""","""live in the desert""","""text""","""reverse""",-99,"""all""",-99,"""Wopis""","""interrupted"""
2,2111,"""filler""","""wopis""","""are very hard to find""","""come close to kazzes""","""eat kazzes""",7,1,"""they all are very hard to find. Wopis sleep during the day to avoid ""","""live in the desert""","""text""","""reverse""",-99,"""all""",-99,"""Wopis""","""interrupted"""
2,7603,"""filler""","""wopis""","""are very hard to find""","""are very hard to find""","""live in the desert""",7,-1,"""""","""live in the desert""","""query""","""same""",1,"""all""",1,"""Wopis""","""interrupted"""
2,1418,"""filler""","""wopis""","""are very hard to find""","""are very hard to find""","""live in the desert""",7,2,"""the heat, and look for food at night when it&quotechars cool.""","""live in the desert""","""text""","""same""",1,"""all""",1,"""Wopis""","""interrupted"""
2,3733,"""critical""","""glippets""","""live on the continent of Este""","""are very hard to find""","""live in the desert""",8,0,"""Glippets are large creatures, quite intelligent, with a life-span of about ""","""live on the continent of Caro""","""text""","""same""",-99,"""generic""",-99,"""Glippets""","""interrupted"""
2,2780,"""critical""","""glippets""","""live on the continent of Este""","""are very hard to find""","""live in the desert""",8,1,"""sixty years. They live on the southern continent of Caro""","""live on the continent of Caro""","""text""","""same""",-99,"""generic""",-99,"""Glippets""","""interrupted"""
2,17858,"""critical""","""glippets""","""live on the continent of Este""","""live on the continent of Este""","""live on the continent of Caro""",8,-1,"""""","""live on the continent of Caro""","""query""","""reverse""",0,"""generic""",1,"""Glippets""","""interrupted"""
2,1250,"""critical""","""glippets""","""live on the continent of Este""","""live on the continent of Este""","""live on the continent of Caro""",8,2,"""and enjoy the sunshine there.""","""live on the continent of Caro""","""text""","""reverse""",0,"""generic""",1,"""Glippets""","""interrupted"""
2,3165,"""critical""","""vimble queens""","""hibernate in the abandoned burrows of other animals""","""live on the continent of Este""","""live on the continent of Caro""",9,0,"""Vimbles are social insects that live in colonies of up to a thousand individuals. Vimbles live for a year ""","""hibernate in fallen logs""","""text""","""reverse""",-99,"""generic""",-99,"""Vimbles""","""nme_interrupted"""
2,3023,"""critical""","""vimble queens""","""hibernate in the abandoned burrows of other animals""","""live on the continent of Este""","""live on the continent of Caro""",9,1,"""or less. They have a single queen, who must find somewhere to hibernate over the winter before ""","""hibernate in fallen logs""","""text""","""reverse""",-99,"""generic""",-99,"""Vimbles""","""nme_interrupted"""
2,2624,"""critical""","""vimble queens""","""hibernate in the abandoned burrows of other animals""","""live on the continent of Este""","""live on the continent of Caro""",9,2,"""starting a new colony. Vimble queens hibernate in fallen logs  ""","""hibernate in fallen logs""","""text""","""reverse""",-99,"""generic""",-99,"""Vimbles""","""nme_interrupted"""
2,8111,"""critical""","""vimble queens""","""hibernate in the abandoned burrows of other animals""","""give birth twice a year""","""hibernate in fallen logs""",9,-1,"""""","""hibernate in fallen logs""","""query""","""reverse""",0,"""generic""",1,"""Vimbles""","""nme_interrupted"""
2,2386,"""critical""","""vimble queens""","""hibernate in the abandoned burrows of other animals""","""give birth twice a year""","""hibernate in fallen logs""",9,3,"""and only emerge when the weather has become warmer.""","""hibernate in fallen logs""","""text""","""reverse""",0,"""generic""",1,"""Vimbles""","""nme_interrupted"""
2,4039,"""critical""","""farmers in the springtime""","""burn their fields to plant soroneeks""","""give birth twice a year""","""hibernate in fallen logs""",10,0,"""The soil on the continent of Aga is very fertile, and the aliens have learned to grow many crops. However, farmers only grow""","""flood their fields to plant fujusi""","""text""","""reverse""",-99,"""generic""",-99,"""Agriculture""","""nme_uninterrupted"""
2,3498,"""critical""","""farmers in the springtime""","""burn their fields to plant soroneeks""","""give birth twice a year""","""hibernate in fallen logs""",10,1,"""one type of crop to increase their profits when selling. Their farms are very big, often stretching ""","""flood their fields to plant fujusi""","""text""","""reverse""",-99,"""generic""",-99,"""Agriculture""","""nme_uninterrupted"""
2,3462,"""critical""","""farmers in the springtime""","""burn their fields to plant soroneeks""","""give birth twice a year""","""hibernate in fallen logs""",10,2,"""several miles in every direction. During the springtime, the aliens flood their fields to plant fujusi""","""flood their fields to plant fujusi""","""text""","""reverse""",-99,"""generic""",-99,"""Agriculture""","""nme_uninterrupted"""
2,2257,"""critical""","""farmers in the springtime""","""burn their fields to plant soroneeks""","""give birth twice a year""","""hibernate in fallen logs""",10,3,"""and spray them with a naturally-occurring fertilizer.""","""flood their fields to plant fujusi""","""text""","""reverse""",-99,"""generic""",-99,"""Agriculture""","""nme_uninterrupted"""
2,14850,"""critical""","""farmers in the springtime""","""burn their fields to plant soroneeks""","""spray their fields with a naturally-occurring fertilizer""","""flood their fields to plant fujusi""",10,4,"""""","""flood their fields to plant fujusi""","""query""","""reverse""",0.85,"""generic""",0.95,"""Agriculture""","""nme_uninterrupted"""
2,7925,"""critical""","""isooms""","""produce fruit with smooth skin""","""spray their fields with a naturally-occurring fertilizer""","""flood their fields to plant fujusi""",11,0,"""Isooms are tree-like plants that are found in hilly regions of Fale. Their fruit is edible, and the aliens often ""","""produce fruit with bumpy skin""","""text""","""reverse""",-99,"""generic""",-99,"""Isooms""","""uninterrupted"""
2,2806,"""critical""","""isooms""","""produce fruit with smooth skin""","""spray their fields with a naturally-occurring fertilizer""","""flood their fields to plant fujusi""",11,1,"""cultivate isooms for food. Isooms produce fruit with bumpy skin ""","""produce fruit with bumpy skin""","""text""","""reverse""",-99,"""generic""",-99,"""Isooms""","""uninterrupted"""
2,1439,"""critical""","""isooms""","""produce fruit with smooth skin""","""spray their fields with a naturally-occurring fertilizer""","""flood their fields to plant fujusi""",11,2,"""and fruit with smooth skin.""","""produce fruit with bumpy skin""","""text""","""reverse""",-99,"""generic""",-99,"""Isooms""","""uninterrupted"""
2,16657,"""critical""","""isooms""","""produce fruit with smooth skin""","""produce fruit with smooth skin""","""produce fruit with bumpy skin""",11,3,"""""","""produce fruit with bumpy skin""","""query""","""same""",0.05,"""generic""",0.95,"""Isooms""","""uninterrupted"""
2,4553,"""filler""","""mupors""","""build large triangular rebos""","""produce fruit with smooth skin""","""produce fruit with bumpy skin""",12,0,"""Mupors are very social creatures. Most of them live in extended family groups consisting of ""","""live in extended family groups""","""text""","""same""",-99,"""most""",-99,"""Mupors""","""uninterrupted"""
2,2705,"""filler""","""mupors""","""build large triangular rebos""","""produce fruit with smooth skin""","""produce fruit with bumpy skin""",12,1,"""multiple generations. Most of them also build large triangular rebos ""","""live in extended family groups""","""text""","""same""",-99,"""most""",-99,"""Mupors""","""uninterrupted"""
2,1961,"""filler""","""mupors""","""build large triangular rebos""","""produce fruit with smooth skin""","""produce fruit with bumpy skin""",12,2,"""made of clay and grass.""","""live in extended family groups""","""text""","""same""",-99,"""most""",-99,"""Mupors""","""uninterrupted"""
2,9206,"""filler""","""mupors""","""build large triangular rebos""","""build large triangular rebos""","""live in extended family groups""",12,3,"""""","""live in extended family groups""","""query""","""same""",1,"""most""",1,"""Mupors""","""uninterrupted"""
2,7761,"""critical""","""reesles""","""wear krevnors around their heads""","""build large triangular rebos""","""live in extended family groups""",13,0,"""Reesles are strange, furry creatures, often found in the homes of the aliens. They are not house pets ""","""wear wutsats around their heads""","""text""","""same""",-99,"""generic""",-99,"""Reesles""","""uninterrupted"""
2,5158,"""critical""","""reesles""","""wear krevnors around their heads""","""build large triangular rebos""","""live in extended family groups""",13,1,"""but quasi-domesticated animals. They will steal food from you if you are not paying <i class=\""chrome-extension-mutihighlight chrome-extension-mutihighlight-style-2\"">attention</i>. They have""","""wear wutsats around their heads""","""text""","""same""",-99,"""generic""",-99,"""Reesles""","""uninterrupted"""
2,5884,"""critical""","""reesles""","""wear krevnors around their heads""","""build large triangular rebos""","""live in extended family groups""",13,2,"""special headgear to help other aliens identify their owners. Around their heads, they wear giant wutsats""","""wear wutsats around their heads""","""text""","""same""",-99,"""generic""",-99,"""Reesles""","""uninterrupted"""
2,1845,"""critical""","""reesles""","""wear krevnors around their heads""","""build large triangular rebos""","""live in extended family groups""",13,3,"""and krevnors.""","""wear wutsats around their heads""","""text""","""same""",-99,"""generic""",-99,"""Reesles""","""uninterrupted"""
2,19546,"""critical""","""reesles""","""wear krevnors around their heads""","""wear krevnors around their heads""","""wear wutsats around their heads""",13,4,"""""","""wear wutsats around their heads""","""query""","""reverse""",0.5,"""generic""",0.5,"""Reesles""","""uninterrupted"""
2,5165,"""filler""","""Astom aliens""","""live in the residential quarter""","""wear krevnors around their heads""","""wear wutsats around their heads""",14,0,"""Zorf the mapmaker lives in the large forest city of Astom. In Astom, there are many ways to get""","""use the tunnels to get around town""","""text""","""reverse""",-99,"""all""",-99,"""Zorf the mapmaker""","""uninterrupted"""
2,4329,"""filler""","""Astom aliens""","""live in the residential quarter""","""wear krevnors around their heads""","""wear wutsats around their heads""",14,1,"""from place to place, but the most popular way is through tunnels. All of the Astom aliens use the tunnels""","""use the tunnels to get around town""","""text""","""reverse""",-99,"""all""",-99,"""Zorf the mapmaker""","""uninterrupted"""
2,4564,"""filler""","""Astom aliens""","""live in the residential quarter""","""wear krevnors around their heads""","""wear wutsats around their heads""",14,2,"""to get around town from their homes in the residential quarter. Since all of the Astom aliens live there, it&quotechars peaceful during the day ""","""use the tunnels to get around town""","""text""","""reverse""",-99,"""all""",-99,"""Zorf the mapmaker""","""uninterrupted"""
2,1757,"""filler""","""Astom aliens""","""live in the residential quarter""","""wear krevnors around their heads""","""wear wutsats around their heads""",14,3,"""but very crowded at night.""","""use the tunnels to get around town""","""text""","""reverse""",-99,"""all""",-99,"""Zorf the mapmaker""","""uninterrupted"""
2,9717,"""filler""","""Astom aliens""","""live in the residential quarter""","""live in the residential quarter""","""use the tunnels to get around town""",14,4,"""""","""use the tunnels to get around town""","""query""","""reverse""",0.85,"""all""",1,"""Zorf the mapmaker""","""uninterrupted"""
2,6592,"""critical""","""oller families""","""carry their young in trullets""","""live in the residential quarter""","""use the tunnels to get around town""",15,0,"""Ollers spend most of their lives in water, but occasionally come on land to gather berries. Ollers use tools on land but have a difficult ""","""carry their young in guklags""","""text""","""reverse""",-99,"""generic""",-99,"""Ollers""","""interrupted"""
2,6151,"""critical""","""oller families""","""carry their young in trullets""","""live in the residential quarter""","""use the tunnels to get around town""",15,1,"""time making them. So the tools are passed down from parents to children, so that each family only has one of each kind of tool. Baby ""","""carry their young in guklags""","""text""","""reverse""",-99,"""generic""",-99,"""Ollers""","""interrupted"""
2,8124,"""critical""","""oller families""","""carry their young in trullets""","""live in the residential quarter""","""use the tunnels to get around town""",15,2,"""ollers find it very exciting to be on land, but they have trouble walking and need to be carried by members of their families. While on land, ollers carry their young in guklags""","""carry their young in guklags""","""text""","""reverse""",-99,"""generic""",-99,"""Ollers""","""interrupted"""
2,6697,"""critical""","""oller families""","""carry their young in trullets""","""carry their young in trullets""","""carry their young in guklags""",15,-1,"""""","""carry their young in guklags""","""query""","""reverse""",0,"""generic""",1,"""Ollers""","""interrupted"""
2,4192,"""critical""","""oller families""","""carry their young in trullets""","""carry their young in trullets""","""carry their young in guklags""",15,3,"""and use sticks for balance.""","""carry their young in guklags""","""text""","""reverse""",0,"""generic""",1,"""Ollers""","""interrupted"""
2,7493,"""critical""","""landeks""","""have seven horns""","""carry their young in trullets""","""carry their young in guklags""",16,0,"""Landeks are very fierce creatures. When the aliens encounter landeks in the wild, they usually run away ""","""have four horns""","""text""","""reverse""",-99,"""generic""",-99,"""Landeks""","""nme_interrupted"""
2,13496,"""critical""","""landeks""","""have seven horns""","""carry their young in trullets""","""carry their young in guklags""",16,1,"""quickly. Landeks often fight with each other over territory, food, or mates. They fight using the long horns on their heads and on their ""","""have four horns""","""text""","""reverse""",-99,"""generic""",-99,"""Landeks""","""nme_interrupted"""
2,2127,"""critical""","""landeks""","""have seven horns""","""carry their young in trullets""","""carry their young in guklags""",16,2,"""backs. Landeks have four horns ""","""have four horns""","""text""","""reverse""",-99,"""generic""",-99,"""Landeks""","""nme_interrupted"""
2,7296,"""critical""","""landeks""","""have seven horns""","""have two tails""","""have four horns""",16,-1,"""""","""have four horns""","""query""","""same""",0,"""generic""",1,"""Landeks""","""nme_interrupted"""
2,1428,"""critical""","""landeks""","""have seven horns""","""have two tails""","""have four horns""",16,3,"""and charge without warning.""","""have four horns""","""text""","""same""",0,"""generic""",1,"""Landeks""","""nme_interrupted"""
2,2590,"""critical""","""kaples""","""have spotted fur""","""have two tails""","""have four horns""",17,0,"""Kaples are small animals that live in the jungles. They are most active ""","""have striped fur""","""text""","""same""",-99,"""generic""",-99,"""Kaples""","""interrupted"""
2,3961,"""critical""","""kaples""","""have spotted fur""","""have two tails""","""have four horns""",17,1,"""at dawn and at dusk, when their usual predators are less active. Their thick fur helps camouflage ""","""have striped fur""","""text""","""same""",-99,"""generic""",-99,"""Kaples""","""interrupted"""
2,2264,"""critical""","""kaples""","""have spotted fur""","""have two tails""","""have four horns""",17,2,"""them among the plants on the forest floor. Kaples have striped fur ""","""have striped fur""","""text""","""same""",-99,"""generic""",-99,"""Kaples""","""interrupted"""
2,7630,"""critical""","""kaples""","""have spotted fur""","""have spotted fur""","""have striped fur""",17,-1,"""""","""have striped fur""","""query""","""reverse""",0,"""generic""",1,"""Kaples""","""interrupted"""
2,1308,"""critical""","""kaples""","""have spotted fur""","""have spotted fur""","""have striped fur""",17,3,"""and beautiful eyes.""","""have striped fur""","""text""","""reverse""",0,"""generic""",1,"""Kaples""","""interrupted"""
2,5430,"""filler""","""aliens""","""admire Wint""","""have spotted fur""","""have striped fur""",18,0,"""Wint lived a long time ago in the mountains. He loved to travel, and ""","""remember Wint""","""text""","""reverse""",-99,"""all""",-99,"""Wint of the Mountains""","""interrupted"""
2,6250,"""filler""","""aliens""","""admire Wint""","""have spotted fur""","""have striped fur""",18,1,"""would often go as far as the oceans. But all aliens remember Wint and admire him because he was the one that found the lost city of Baff ""","""remember Wint""","""text""","""reverse""",-99,"""all""",-99,"""Wint of the Mountains""","""interrupted"""
2,16424,"""filler""","""aliens""","""admire Wint""","""admire Wint""","""remember Wint""",18,-1,"""""","""remember Wint""","""query""","""reverse""",0.75,"""all""",1,"""Wint of the Mountains""","""interrupted"""
2,2390,"""filler""","""aliens""","""admire Wint""","""admire Wint""","""remember Wint""",18,2,"""and that rescued the ancient alien artifact from the city.""","""remember Wint""","""text""","""reverse""",0.75,"""all""",1,"""Wint of the Mountains""","""interrupted"""
2,3953,"""filler""","""supools""","""live for a very long time""","""admire Wint""","""remember Wint""",19,0,"""Supools are the biggest creatures on Dax. They all live in the oceans and ""","""live in the oceans""","""text""","""reverse""",-99,"""all""",-99,"""Supools""","""interrupted"""
2,3806,"""filler""","""supools""","""live for a very long time""","""admire Wint""","""remember Wint""",19,1,"""all of them live for a very long time. In the mornings, they like to play in the open ocean, and in the ""","""live in the oceans""","""text""","""reverse""",-99,"""all""",-99,"""Supools""","""interrupted"""
2,7311,"""filler""","""supools""","""live for a very long time""","""live for a very long time""","""live in the oceans""",19,-1,"""""","""live in the oceans""","""query""","""same""",0.85,"""all""",1,"""Supools""","""interrupted"""
2,1464,"""filler""","""supools""","""live for a very long time""","""live for a very long time""","""live in the oceans""",19,2,"""evenings, they come closer to the shore.""","""live in the oceans""","""text""","""same""",0.85,"""all""",1,"""Supools""","""interrupted"""
2,3827,"""critical""","""kweps""","""chew on tunkel""","""live for a very long time""","""live in the oceans""",20,0,"""Kweps hunt in packs. Even though they are pack animals, all of them have highly idiosyncractic food ""","""chew on xorfun""","""text""","""same""",-99,"""generic""",-99,"""Kweps""","""uninterrupted"""
2,4545,"""critical""","""kweps""","""chew on tunkel""","""live for a very long time""","""live in the oceans""",20,1,"""preferences and behaviors. Some of them like to eat apples and others like to eat oranges. When they go ""","""chew on xorfun""","""text""","""same""",-99,"""generic""",-99,"""Kweps""","""uninterrupted"""
2,5499,"""critical""","""kweps""","""chew on tunkel""","""live for a very long time""","""live in the oceans""",20,2,"""hunting at night they look for creatures sleeping alone, not in groups. Right before they go hunting, the kweps chew on xorfun""","""chew on xorfun""","""text""","""same""",-99,"""generic""",-99,"""Kweps""","""uninterrupted"""
2,1644,"""critical""","""kweps""","""chew on tunkel""","""live for a very long time""","""live in the oceans""",20,3,"""and on tunkel.""","""chew on xorfun""","""text""","""same""",-99,"""generic""",-99,"""Kweps""","""uninterrupted"""
2,9032,"""critical""","""kweps""","""chew on tunkel""","""chew on tunkel""","""chew on xorfun""",20,4,"""""","""chew on xorfun""","""query""","""reverse""",0.5,"""generic""",0.5,"""Kweps""","""uninterrupted"""
3,18868,"""filler""","""NA""","""NA""",NA,NA,0,0,"""Dax is a lot like Earth.  Like Earth it has seven continents, in similar locations, but instead of North ""","""NA""","""text""","""NA""",-99,"""generic""",-99,"""An introduction to Dax""","""uninterrupted"""
3,2553,"""filler""","""NA""","""NA""",NA,NA,0,1,""" America, South America, Africa, Europe, Asia, Australia, and Antarctica, the continents are  ""","""NA""","""text""","""NA""",-99,"""generic""",-99,"""An introduction to Dax""","""uninterrupted"""
3,6999,"""filler""","""NA""","""NA""",NA,NA,0,2,""" called  Aga,  Benli, Caro, Dodi, Ente, Fale, and Gomi. Its climate is a lot like Earth&quotechars, too. But the""","""NA""","""text""","""NA""",-99,"""generic""",-99,"""An introduction to Dax""","""uninterrupted"""
3,2228,"""filler""","""NA""","""NA""",NA,NA,0,3,"""  plants and animals of Dax are quite different.""","""NA""","""text""","""NA""",-99,"""generic""",-99,"""An introduction to Dax""","""uninterrupted"""
3,10780,"""filler""","""supools""","""live for a very long time""",NA,NA,1,0,"""Supools are the biggest creatures on Dax. They all live in the oceans and ""","""live in the oceans""","""text""","""NA""",-99,"""all""",-99,"""Supools""","""uninterrupted"""
3,7134,"""filler""","""supools""","""live for a very long time""",NA,NA,1,1,"""all of them live for a very long time. In the mornings, they like to play in the open ocean, and in the ""","""live in the oceans""","""text""","""NA""",-99,"""all""",-99,"""Supools""","""uninterrupted"""
3,7060,"""filler""","""supools""","""live for a very long time""",NA,NA,1,2,"""evenings, they come closer to the shore.""","""live in the oceans""","""text""","""NA""",-99,"""all""",-99,"""Supools""","""uninterrupted"""
3,6474,"""filler""","""supools""","""live for a very long time""","""live for a very long time""","""live in the oceans""",1,3,"""""","""live in the oceans""","""query""","""same""",1,"""all""",1,"""Supools""","""uninterrupted"""
3,13584,"""filler""","""yomis""","""fly towards the mountains in search of food""","""live for a very long time""","""live in the oceans""",2,0,"""Yomis are small, fast insect-like creatures. They all live in the ""","""live in the borderland woodlands""","""text""","""same""",-99,"""all""",-99,"""Yomis""","""uninterrupted"""
3,4357,"""filler""","""yomis""","""fly towards the mountains in search of food""","""live for a very long time""","""live in the oceans""",2,1,"""borderland woodlands. They all fly towards the mountains in search of food, but they need to be careful ""","""live in the borderland woodlands""","""text""","""same""",-99,"""all""",-99,"""Yomis""","""uninterrupted"""
3,2083,"""filler""","""yomis""","""fly towards the mountains in search of food""","""live for a very long time""","""live in the oceans""",2,2,"""of their natural predators, turmens.""","""live in the borderland woodlands""","""text""","""same""",-99,"""all""",-99,"""Yomis""","""uninterrupted"""
3,4572,"""filler""","""yomis""","""fly towards the mountains in search of food""","""fly towards the mountains in search of food""","""live in the borderland woodlands""",2,3,"""""","""live in the borderland woodlands""","""query""","""same""",0.85,"""all""",0.72,"""Yomis""","""uninterrupted"""
3,36803,"""critical""","""kweps""","""chew on tunkel""","""fly towards the mountains in search of food""","""live in the borderland woodlands""",3,0,"""Kweps hunt in packs. Even though they are pack animals, all of them have highly idiosyncractic food ""","""chew on xorfun""","""text""","""same""",-99,"""generic""",-99,"""Kweps""","""interrupted"""
3,12986,"""critical""","""kweps""","""chew on tunkel""","""fly towards the mountains in search of food""","""live in the borderland woodlands""",3,1,"""preferences and behaviors. Some of them like to eat apples and others like to eat oranges. When they go ""","""chew on xorfun""","""text""","""same""",-99,"""generic""",-99,"""Kweps""","""interrupted"""
3,2855,"""critical""","""kweps""","""chew on tunkel""","""fly towards the mountains in search of food""","""live in the borderland woodlands""",3,2,"""hunting at night they look for creatures sleeping alone, not in groups. Right before they go hunting, the kweps chew on xorfun""","""chew on xorfun""","""text""","""same""",-99,"""generic""",-99,"""Kweps""","""interrupted"""
3,36215,"""critical""","""kweps""","""chew on tunkel""","""chew on tunkel""","""chew on xorfun""",3,-1,"""""","""chew on xorfun""","""query""","""same""",0.08,"""generic""",0.82,"""Kweps""","""interrupted"""
3,3042,"""critical""","""kweps""","""chew on tunkel""","""chew on tunkel""","""chew on xorfun""",3,3,"""and howl towards the sky.""","""chew on xorfun""","""text""","""same""",0.08,"""generic""",0.82,"""Kweps""","""interrupted"""
3,16793,"""critical""","""isooms""","""produce fruit with smooth skin""","""chew on tunkel""","""chew on xorfun""",4,0,"""Isooms are tree-like plants that are found in hilly regions of Fale. Their fruit is edible, and the aliens often ""","""produce fruit with bumpy skin""","""text""","""same""",-99,"""generic""",-99,"""Isooms""","""nme_uninterrupted"""
3,14605,"""critical""","""isooms""","""produce fruit with smooth skin""","""chew on tunkel""","""chew on xorfun""",4,1,"""cultivate isooms for food. Isooms produce fruit with bumpy skin ""","""produce fruit with bumpy skin""","""text""","""same""",-99,"""generic""",-99,"""Isooms""","""nme_uninterrupted"""
3,2524,"""critical""","""isooms""","""produce fruit with smooth skin""","""chew on tunkel""","""chew on xorfun""",4,2,"""and a sour taste.""","""produce fruit with bumpy skin""","""text""","""same""",-99,"""generic""",-99,"""Isooms""","""nme_uninterrupted"""
3,20386,"""critical""","""isooms""","""produce fruit with smooth skin""","""produce fruit with a sour taste""","""produce fruit with bumpy skin""",4,3,"""""","""produce fruit with bumpy skin""","""query""","""same""",1,"""generic""",0.93,"""Isooms""","""nme_uninterrupted"""
3,16407,"""critical""","""lorches""","""have short wings""","""produce fruit with a sour taste""","""produce fruit with bumpy skin""",5,0,"""Lorches have massive beaks and are found on the continents of Dodi and Gomi. The two continents""","""have long wings""","""text""","""same""",-99,"""generic""",-99,"""Lorches""","""nme_interrupted"""
3,5541,"""critical""","""lorches""","""have short wings""","""produce fruit with a sour taste""","""produce fruit with bumpy skin""",5,1,"""are quite different in what kinds of animals are available for them to eat. Lorches have long wings ""","""have long wings""","""text""","""same""",-99,"""generic""",-99,"""Lorches""","""nme_interrupted"""
3,11567,"""critical""","""lorches""","""have short wings""","""have sharp claws""","""have long wings""",5,-1,"""""","""have long wings""","""query""","""same""",0.83,"""generic""",0.89,"""Lorches""","""nme_interrupted"""
3,1459,"""critical""","""lorches""","""have short wings""","""have sharp claws""","""have long wings""",5,2,"""and fly only at night.""","""have long wings""","""text""","""same""",0.83,"""generic""",0.89,"""Lorches""","""nme_interrupted"""
3,7564,"""critical""","""basket weavers""","""are part of the Farza guild""","""have sharp claws""","""have long wings""",6,0,"""The aliens have many different kinds of specialized skills and trades, such as basket weaving. Crafters are found all over Dax, but ""","""are part of the Tinno guild""","""text""","""same""",-99,"""generic""",-99,"""Crafts""","""uninterrupted"""
3,5151,"""critical""","""basket weavers""","""are part of the Farza guild""","""have sharp claws""","""have long wings""",6,1,"""they are especially common in the city of Rondoo, where aliens from all over go to buy luxury goods. To ""","""are part of the Tinno guild""","""text""","""same""",-99,"""generic""",-99,"""Crafts""","""uninterrupted"""
3,5567,"""critical""","""basket weavers""","""are part of the Farza guild""","""have sharp claws""","""have long wings""",6,2,"""help make themselves known, crafters join guilds with other crafters of the same trade. Basket weavers are part of the Tinno guild ""","""are part of the Tinno guild""","""text""","""same""",-99,"""generic""",-99,"""Crafts""","""uninterrupted"""
3,5381,"""critical""","""basket weavers""","""are part of the Farza guild""","""have sharp claws""","""have long wings""",6,3,"""and the Farza guild.""","""are part of the Tinno guild""","""text""","""same""",-99,"""generic""",-99,"""Crafts""","""uninterrupted"""
3,22823,"""critical""","""basket weavers""","""are part of the Farza guild""","""are part of the Farza guild""","""are part of the Tinno guild""",6,4,"""""","""are part of the Tinno guild""","""query""","""reverse""",0.5,"""generic""",0.5,"""Crafts""","""uninterrupted"""
3,15909,"""critical""","""Krens""","""are fishermen""","""are part of the Farza guild""","""are part of the Tinno guild""",7,0,"""Krens are a tribe of the aliens that live on the continent of Benli, which has no agriculture. Like most ""","""are stup-herders""","""text""","""reverse""",-99,"""generic""",-99,"""Finding food""","""nme_interrupted"""
3,4434,"""critical""","""Krens""","""are fishermen""","""are part of the Farza guild""","""are part of the Tinno guild""",7,1,"""creatures on Dax, Krens eat other creatures to survive. Animals like stups, four-legged creatures with ""","""are stup-herders""","""text""","""reverse""",-99,"""generic""",-99,"""Finding food""","""nme_interrupted"""
3,7487,"""critical""","""Krens""","""are fishermen""","""are part of the Farza guild""","""are part of the Tinno guild""",7,2,"""large antlers, are a resource for the Krens. Stups roam all over the windy highlands of Benli, far from the oceans. Krens are stup-herders""","""are stup-herders""","""text""","""reverse""",-99,"""generic""",-99,"""Finding food""","""nme_interrupted"""
3,38626,"""critical""","""Krens""","""are fishermen""","""sing songs to the stups to help them relax""","""are stup-herders""",7,-1,"""""","""are stup-herders""","""query""","""same""",0,"""generic""",0.37,"""Finding food""","""nme_interrupted"""
3,1857,"""critical""","""Krens""","""are fishermen""","""sing songs to the stups to help them relax""","""are stup-herders""",7,3,"""and incorporate stups into their religion.""","""are stup-herders""","""text""","""same""",0,"""generic""",0.37,"""Finding food""","""nme_interrupted"""
