"workerid","rt","trial_type","kind","predicate_2","query_predicate_2","information","chapter_num","query_predicate_1","page_num","page_content","predicate_1","page_type","question_order","response_2","quantifier","response_1","chapter","condition","conjunctionBreak"
0,13977,"""filler""","""NA""","""NA""",NA,NA,0,NA,"0","""Dax is a lot like Earth.  Like Earth it has seven continents, in similar locations, but instead of North ""","""NA""","""text""",NA,-99,"""generic""",-99,"""An introduction to Dax""","""uninterrupted""",NA
0,3192,"""filler""","""NA""","""NA""",NA,NA,0,NA,"1",""" America, South America, Africa, Europe, Asia, Australia, and Antarctica, the continents are  ""","""NA""","""text""",NA,-99,"""generic""",-99,"""An introduction to Dax""","""uninterrupted""",NA
0,3608,"""filler""","""NA""","""NA""",NA,NA,0,NA,"2",""" called  Aga,  Benli, Caro, Dodi, Ente, Fale, and Gomi. Its climate is a lot like Earth&quotechars, too. But the""","""NA""","""text""",NA,-99,"""generic""",-99,"""An introduction to Dax""","""uninterrupted""",NA
0,3632,"""filler""","""NA""","""NA""",NA,NA,0,NA,"3","""  plants and animals of Dax are quite different.""","""NA""","""text""",NA,-99,"""generic""",-99,"""An introduction to Dax""","""uninterrupted""",NA
0,5424,"""filler""","""wopis""","""are very hard to find""",NA,"""full""",1,NA,"0","""Wopis are extremely rare creatures. They only live in the desert and ""","""live in the desert""","""text""",NA,-99,"""all""",-99,"""Wopis""","""interrupted""","false"
0,5079,"""filler""","""wopis""","""are very hard to find""",NA,"""full""",1,NA,"1","""they all are very hard to find. Wopis sleep during the day to avoid ""","""live in the desert""","""text""",NA,-99,"""all""",-99,"""Wopis""","""interrupted""","false"
0,7664,"""filler""","""wopis""","""are very hard to find""","""are very hard to find""","""full""",1,"""live in the desert""","null","""""","""live in the desert""","""query""","""same""",0.91,"""all""",0.86,"""Wopis""","""interrupted""","false"
0,3504,"""filler""","""wopis""","""are very hard to find""","""are very hard to find""","""full""",1,"""live in the desert""","2","""the heat, and look for food at night when it&quotechars cool.""","""live in the desert""","""text""","""same""",0.91,"""all""",0.86,"""Wopis""","""interrupted""","false"
0,5543,"""filler""","""feps""","""come close to kazzes""","""are very hard to find""","""full""",2,"""live in the desert""","0","""Kazzes are a kind of plant that grow all over Dax. They produce fruit in the springtime, but the""","""eat kazzes""","""text""","""same""",-99,"""none""",-99,"""Kazzes""","""interrupted""","true"
0,7504,"""filler""","""feps""","""come close to kazzes""","""are very hard to find""","""full""",2,"""live in the desert""","1",""" fruit is poisonous to animals. No feps eat kazzes nor do they come close. Kazzes can be highly toxic ""","""eat kazzes""","""text""","""same""",-99,"""none""",-99,"""Kazzes""","""interrupted""","true"
0,6615,"""filler""","""feps""","""come close to kazzes""","""come close to kazzes""","""full""",2,"""eat kazzes""","null","""""","""eat kazzes""","""query""","""same""",0.16,"""none""",0.03,"""Kazzes""","""interrupted""","true"
0,1983,"""filler""","""feps""","""come close to kazzes""","""come close to kazzes""","""full""",2,"""eat kazzes""","2","""and this poison is a defensive mechanism for kazzes.""","""eat kazzes""","""text""","""same""",0.16,"""none""",0.03,"""Kazzes""","""interrupted""","true"
0,5392,"""critical""","""reesles""","""wear krevnors around their heads""","""come close to kazzes""",NA,3,"""eat kazzes""","0","""Reesles are strange, furry creatures, often found in the homes of the aliens. They are not house pets ""","""wear wutsats around their heads""","""text""","""same""",-99,"""generic""",-99,"""Reesles""","""int3""",NA
0,5481,"""critical""","""reesles""","""wear krevnors around their heads""","""come close to kazzes""",NA,3,"""eat kazzes""","1","""but quasi-domensticated animals. They will steal food from you if you are not paying attention. They have ""","""wear wutsats around their heads""","""text""","""same""",-99,"""generic""",-99,"""Reesles""","""int3""",NA
0,7121,"""critical""","""reesles""","""wear krevnors around their heads""","""come close to kazzes""",NA,3,"""eat kazzes""","2","""special headgear to help identify their owners. Around their heads, they wear giant wutsats and roam around by themselves at night""","""wear wutsats around their heads""","""text""","""same""",-99,"""generic""",-99,"""Reesles""","""int3""",NA
0,7232,"""critical""","""reesles""","""wear krevnors around their heads""","""wear krevnors around their heads""",NA,3,"""wear wutsats around their heads""","null","""""","""wear wutsats around their heads""","""query""","""same""",0.56,"""generic""",0.85,"""Reesles""","""int3""",NA
0,2976,"""critical""","""reesles""","""wear krevnors around their heads""","""wear krevnors around their heads""",NA,3,"""wear wutsats around their heads""","3","""when they like to explore other homes.""","""wear wutsats around their heads""","""text""","""same""",0.56,"""generic""",0.85,"""Reesles""","""int3""",NA
0,4519,"""filler""","""supools""","""live for a very long time""","""wear krevnors around their heads""","""full""",4,"""wear wutsats around their heads""","0","""Supools are the biggest creatures on Dax. They all live in the oceans and ""","""live in the oceans""","""text""","""same""",-99,"""all""",-99,"""Supools""","""interrupted""","false"
0,3959,"""filler""","""supools""","""live for a very long time""","""wear krevnors around their heads""","""full""",4,"""wear wutsats around their heads""","1","""all of them live for a very long time. In the mornings, they like to play in the open ocean, and in the ""","""live in the oceans""","""text""","""same""",-99,"""all""",-99,"""Supools""","""interrupted""","false"
0,8776,"""filler""","""supools""","""live for a very long time""","""live for a very long time""","""full""",4,"""live in the oceans""","null","""""","""live in the oceans""","""query""","""same""",0.69,"""all""",0.69,"""Supools""","""interrupted""","false"
0,1840,"""filler""","""supools""","""live for a very long time""","""live for a very long time""","""full""",4,"""live in the oceans""","2","""evenings, they come closer to the shore.""","""live in the oceans""","""text""","""same""",0.69,"""all""",0.69,"""Supools""","""interrupted""","false"
0,5655,"""critical""","""lorches""","""have short wings""","""live for a very long time""",NA,5,"""live in the oceans""","0","""Lorches have massive beaks and are found on the continents of Dodi and Gomi. The two continents""","""have long wings""","""text""","""same""",-99,"""generic""",-99,"""Lorches""","""nme_interrupted""",NA
0,3608,"""critical""","""lorches""","""have short wings""","""live for a very long time""",NA,5,"""live in the oceans""","1","""are quite different in what kinds of animals are available for them to eat. Lorches have long wings""","""have long wings""","""text""","""same""",-99,"""generic""",-99,"""Lorches""","""nme_interrupted""",NA
0,5688,"""critical""","""lorches""","""have short wings""","""have sharp claws""",NA,5,"""have long wings""","null","""""","""have long wings""","""query""","""same""",0.58,"""generic""",0.83,"""Lorches""","""nme_interrupted""",NA
0,1912,"""critical""","""lorches""","""have short wings""","""have sharp claws""",NA,5,"""have long wings""","2","""and fly only at night.""","""have long wings""","""text""","""same""",0.58,"""generic""",0.83,"""Lorches""","""nme_interrupted""",NA
0,2704,"""critical""","""kaples""","""have spotted fur""","""have sharp claws""",NA,6,"""have long wings""","0","""Kaples are small animals that live in jungles. They are most active at ""","""have striped fur""","""text""","""same""",-99,"""generic""",-99,"""Kaples""","""int4""",NA
0,4789,"""critical""","""kaples""","""have spotted fur""","""have sharp claws""",NA,6,"""have long wings""","1","""dawn and at dusk, when their usual predators are less active. Their thick fur helps camouflage them ""","""have striped fur""","""text""","""same""",-99,"""generic""",-99,"""Kaples""","""int4""",NA
0,3896,"""critical""","""kaples""","""have spotted fur""","""have sharp claws""",NA,6,"""have long wings""","2","""among the plants on the forest floor. Kaples have striped fur and spotted fur""","""have striped fur""","""text""","""same""",-99,"""generic""",-99,"""Kaples""","""int4""",NA
0,7032,"""critical""","""kaples""","""have spotted fur""","""have spotted fur""",NA,6,"""have striped fur""","null","""""","""have striped fur""","""query""","""same""",0.59,"""generic""",0.73,"""Kaples""","""int4""",NA
0,2304,"""critical""","""kaples""","""have spotted fur""","""have spotted fur""",NA,6,"""have striped fur""","3","""that sheds periodically.""","""have striped fur""","""text""","""same""",0.59,"""generic""",0.73,"""Kaples""","""int4""",NA
0,6255,"""filler""","""mupors""","""build large triangular rebos""","""have spotted fur""","""both""",7,"""have striped fur""","0","""Mupors are very social creatures. Most of them live in extended family groups consisting of ""","""live in extended family groups""","""text""","""same""",-99,"""most""",-99,"""Mupors""","""interrupted""","false"
0,2952,"""filler""","""mupors""","""build large triangular rebos""","""have spotted fur""","""both""",7,"""have striped fur""","1","""multiple generations. Most of them also build large triangular rebos ""","""live in extended family groups""","""text""","""same""",-99,"""most""",-99,"""Mupors""","""interrupted""","false"
0,6184,"""filler""","""mupors""","""build large triangular rebos""","""build large triangular rebos""","""both""",7,"""live in extended family groups""","null","""""","""live in extended family groups""","""query""","""same""",0.81,"""most""",0.84,"""Mupors""","""interrupted""","false"
0,1936,"""filler""","""mupors""","""build large triangular rebos""","""build large triangular rebos""","""both""",7,"""live in extended family groups""","2","""made of clay and grass.""","""live in extended family groups""","""text""","""same""",0.81,"""most""",0.84,"""Mupors""","""interrupted""","false"
0,6072,"""critical""","""batozes""","""have seven wings""","""build large triangular rebos""",NA,8,"""live in extended family groups""","0","""Batozes are large birds that are found along all the coasts of Dax. They are skilled hunters and can ""","""have six wings""","""text""","""same""",-99,"""generic""",-99,"""Batozes""","""int1""",NA
0,3672,"""critical""","""batozes""","""have seven wings""","""build large triangular rebos""",NA,8,"""live in extended family groups""","1","""fly for whole days without stopping. They use their sharp claws to hunt for fish. They also have special ""","""have six wings""","""text""","""same""",-99,"""generic""",-99,"""Batozes""","""int1""",NA
0,1344,"""critical""","""batozes""","""have seven wings""","""build large triangular rebos""",NA,8,"""live in extended family groups""","2","""wings that are light but powerful. Batozes have six wings""","""have six wings""","""text""","""same""",-99,"""generic""",-99,"""Batozes""","""int1""",NA
0,6200,"""critical""","""batozes""","""have seven wings""","""have seven wings""",NA,8,"""have six wings""","null","""""","""have six wings""","""query""","""same""",0.48,"""generic""",0.61,"""Batozes""","""int1""",NA
0,1223,"""critical""","""batozes""","""have seven wings""","""have seven wings""",NA,8,"""have six wings""","3","""and can flap their wings very fast.""","""have six wings""","""text""","""same""",0.48,"""generic""",0.61,"""Batozes""","""int1""",NA
0,6567,"""critical""","""basket weavers""","""are part of the Farza guild""","""have seven wings""",NA,9,"""have six wings""","0","""The aliens have many kinds of specialized skills and trades, such as basket weaving. Crafters are found all over Dax, but they are ""","""are part of the Tinno guild""","""text""","""same""",-99,"""generic""",-99,"""Crafts""","""nme_interrupted""",NA
0,4781,"""critical""","""basket weavers""","""are part of the Farza guild""","""have seven wings""",NA,9,"""have six wings""","1","""especially common in the city of Rondoo, where aliens from all over go to buy luxury goods. To help""","""are part of the Tinno guild""","""text""","""same""",-99,"""generic""",-99,"""Crafts""","""nme_interrupted""",NA
0,4793,"""critical""","""basket weavers""","""are part of the Farza guild""","""have seven wings""",NA,9,"""have six wings""","2","""make themselves known, crafters all over Dax join guilds with other crafters of the same trade. Basket weavers are part of the Tinno guild""","""are part of the Tinno guild""","""text""","""same""",-99,"""generic""",-99,"""Crafts""","""nme_interrupted""",NA
0,18351,"""critical""","""basket weavers""","""are part of the Farza guild""","""sell their baskets in the Warfi marketplace""",NA,9,"""are part of the Tinno guild""","null","""""","""are part of the Tinno guild""","""query""","""reverse""",0.77,"""generic""",0.77,"""Crafts""","""nme_interrupted""",NA
0,1699,"""critical""","""basket weavers""","""are part of the Farza guild""","""sell their baskets in the Warfi marketplace""",NA,9,"""are part of the Tinno guild""","3","""and pledge allegiance to Tinnius the Elder.""","""are part of the Tinno guild""","""text""","""reverse""",0.77,"""generic""",0.77,"""Crafts""","""nme_interrupted""",NA
0,4149,"""critical""","""fengnor mated pairs""","""build nests in droops""","""sell their baskets in the Warfi marketplace""",NA,10,"""are part of the Tinno guild""","0","""Fengnors are smaller, nocturnal creatures. They often hide under the leaves of short trees to avoid ""","""build nests in gluers""","""text""","""reverse""",-99,"""generic""",-99,"""Fengnors""","""int4""",NA
0,3840,"""critical""","""fengnor mated pairs""","""build nests in droops""","""sell their baskets in the Warfi marketplace""",NA,10,"""are part of the Tinno guild""","1","""being seen by larger predators. They scrape the bark off trees to eat. They have highly complex""","""build nests in gluers""","""text""","""reverse""",-99,"""generic""",-99,"""Fengnors""","""int4""",NA
0,2920,"""critical""","""fengnor mated pairs""","""build nests in droops""","""sell their baskets in the Warfi marketplace""",NA,10,"""are part of the Tinno guild""","2","""mating habits. They mate for life, and the males often bring twigs and leaves to the females during""","""build nests in gluers""","""text""","""reverse""",-99,"""generic""",-99,"""Fengnors""","""int4""",NA
0,3072,"""critical""","""fengnor mated pairs""","""build nests in droops""","""sell their baskets in the Warfi marketplace""",NA,10,"""are part of the Tinno guild""","3","""courtship. The mated pairs use these twigs and leaves to build their quite elaborate nests in gluers and in droops""","""build nests in gluers""","""text""","""reverse""",-99,"""generic""",-99,"""Fengnors""","""int4""",NA
0,7287,"""critical""","""fengnor mated pairs""","""build nests in droops""","""build nests in droops""",NA,10,"""build nests in gluers""","null","""""","""build nests in gluers""","""query""","""same""",0.53,"""generic""",0.58,"""Fengnors""","""int4""",NA
0,2394,"""critical""","""fengnor mated pairs""","""build nests in droops""","""build nests in droops""",NA,10,"""build nests in gluers""","4","""where eggs can be incubated for up to three months.""","""build nests in gluers""","""text""","""same""",0.53,"""generic""",0.58,"""Fengnors""","""int4""",NA
0,5942,"""filler""","""Astom aliens""","""live in the residential quarter""","""build nests in droops""","""both""",11,"""build nests in gluers""","0","""Zorf the mapmaker lives in the large forest city of Astom. In Astom, there are many ways to get""","""use the tunnels to get around town""","""text""","""same""",-99,"""all""",-99,"""Zorf the mapmaker""","""interrupted""","true"
0,3000,"""filler""","""Astom aliens""","""live in the residential quarter""","""build nests in droops""","""both""",11,"""build nests in gluers""","1","""from place to place, but the most popular way is through tunnels. All of the Astom aliens use the tunnels""","""use the tunnels to get around town""","""text""","""same""",-99,"""all""",-99,"""Zorf the mapmaker""","""interrupted""","true"
0,2791,"""filler""","""Astom aliens""","""live in the residential quarter""","""build nests in droops""","""both""",11,"""build nests in gluers""","2","""to get around town from their homes in the residential quarter. Since all of the Astom aliens live there, it&quotechars peaceful during the day ""","""use the tunnels to get around town""","""text""","""same""",-99,"""all""",-99,"""Zorf the mapmaker""","""interrupted""","true"
0,5696,"""filler""","""Astom aliens""","""live in the residential quarter""","""live in the residential quarter""","""both""",11,"""use the tunnels to get around town""","null","""""","""use the tunnels to get around town""","""query""","""reverse""",0.71,"""all""",0.87,"""Zorf the mapmaker""","""interrupted""","true"
0,1312,"""filler""","""Astom aliens""","""live in the residential quarter""","""live in the residential quarter""","""both""",11,"""use the tunnels to get around town""","3","""but very crowded at night.""","""use the tunnels to get around town""","""text""","""reverse""",0.71,"""all""",0.87,"""Zorf the mapmaker""","""interrupted""","true"
0,4640,"""critical""","""landeks""","""have seven horns""","""live in the residential quarter""",NA,12,"""use the tunnels to get around town""","0","""Landeks are very fierce creatures. When the aliens encounter landeks in the wild, they usually run away ""","""have four horns""","""text""","""reverse""",-99,"""generic""",-99,"""Landeks""","""int3""",NA
0,3319,"""critical""","""landeks""","""have seven horns""","""live in the residential quarter""",NA,12,"""use the tunnels to get around town""","1","""quickly. Landeks often fight with each other over territory, food, or mates. They fight using the long horns on their heads and on their ""","""have four horns""","""text""","""reverse""",-99,"""generic""",-99,"""Landeks""","""int3""",NA
0,1281,"""critical""","""landeks""","""have seven horns""","""live in the residential quarter""",NA,12,"""use the tunnels to get around town""","2","""backs. Landeks have four horns and  charge without warning""","""have four horns""","""text""","""reverse""",-99,"""generic""",-99,"""Landeks""","""int3""",NA
0,4575,"""critical""","""landeks""","""have seven horns""","""have seven horns""",NA,12,"""have four horns""","null","""""","""have four horns""","""query""","""reverse""",0.32,"""generic""",0.91,"""Landeks""","""int3""",NA
0,2480,"""critical""","""landeks""","""have seven horns""","""have seven horns""",NA,12,"""have four horns""","3","""which can be very startling to the aliens.""","""have four horns""","""text""","""reverse""",0.32,"""generic""",0.91,"""Landeks""","""int3""",NA
0,2256,"""filler""","""ice storms on Dax""","""last a long time""","""have seven horns""","""full""",13,"""have four horns""","0","""The weather on Dax is very constant, not changing much from day to day. Occasionally, there will ""","""result in permanent damage to the plants and animals on Dax""","""text""","""reverse""",-99,"""none""",-99,"""Weather""","""interrupted""","true"
0,3488,"""filler""","""ice storms on Dax""","""last a long time""","""have seven horns""","""full""",13,"""have four horns""","1","""be tremendous ice storms that freeze over the entire planet. These ice storms never last long ""","""result in permanent damage to the plants and animals on Dax""","""text""","""reverse""",-99,"""none""",-99,"""Weather""","""interrupted""","true"
0,4655,"""filler""","""ice storms on Dax""","""last a long time""","""have seven horns""","""full""",13,"""have four horns""","2",""" or result in permanent damage to the plants and animals on Dax. However, the ice storms make the entire sky as dark as night""","""result in permanent damage to the plants and animals on Dax""","""text""","""reverse""",-99,"""none""",-99,"""Weather""","""interrupted""","true"
0,6224,"""filler""","""ice storms on Dax""","""last a long time""","""last a long time""","""full""",13,"""result in permanent damage to the plants and animals on Dax""","null","""""","""result in permanent damage to the plants and animals on Dax""","""query""","""reverse""",0.17,"""none""",0.53,"""Weather""","""interrupted""","true"
0,1192,"""filler""","""ice storms on Dax""","""last a long time""","""last a long time""","""full""",13,"""result in permanent damage to the plants and animals on Dax""","3",""" and they frighten most of the animals on Dax.""","""result in permanent damage to the plants and animals on Dax""","""text""","""reverse""",0.17,"""none""",0.53,"""Weather""","""interrupted""","true"
0,1983,"""critical""","""glippets""","""live on the continent of Este""","""last a long time""",NA,14,"""result in permanent damage to the plants and animals on Dax""","0","""Glippets are large creatures, quite intelligent, with a life-span of about ""","""live on the continent of Caro""","""text""","""reverse""",-99,"""generic""",-99,"""Glippets""","""int2""",NA
0,2112,"""critical""","""glippets""","""live on the continent of Este""","""last a long time""",NA,14,"""result in permanent damage to the plants and animals on Dax""","1","""sixty years. They live on the southern continent of Caro and""","""live on the continent of Caro""","""text""","""reverse""",-99,"""generic""",-99,"""Glippets""","""int2""",NA
0,8920,"""critical""","""glippets""","""live on the continent of Este""","""live on the continent of Este""",NA,14,"""live on the continent of Caro""","null","""""","""live on the continent of Caro""","""query""","""reverse""",0.52,"""generic""",0.5,"""Glippets""","""int2""",NA
0,1872,"""critical""","""glippets""","""live on the continent of Este""","""live on the continent of Este""",NA,14,"""live on the continent of Caro""","2","""enjoy the sunshine there.""","""live on the continent of Caro""","""text""","""reverse""",0.52,"""generic""",0.5,"""Glippets""","""int2""",NA
0,3280,"""filler""","""aliens""","""tolerate apaffs to some extent""","""live on the continent of Este""","""full""",15,"""live on the continent of Caro""","0","""Apaffs are a nuisance for the aliens. They make burrows everywhere""","""find apaffs cute""","""text""","""reverse""",-99,"""most""",-99,"""Apaffs""","""interrupted""","false"
0,3463,"""filler""","""aliens""","""tolerate apaffs to some extent""","""live on the continent of Este""","""full""",15,"""live on the continent of Caro""","1","""including in the middle of farmland and in front of their houses. But most aliens find apaffs cute, and tolerate them to some extent. Some ""","""find apaffs cute""","""text""","""reverse""",-99,"""most""",-99,"""Apaffs""","""interrupted""","false"
0,11440,"""filler""","""aliens""","""tolerate apaffs to some extent""","""tolerate apaffs to some extent""","""full""",15,"""find apaffs cute""","null","""""","""find apaffs cute""","""query""","""reverse""",0.53,"""most""",0.3,"""Apaffs""","""interrupted""","false"
0,1217,"""filler""","""aliens""","""tolerate apaffs to some extent""","""tolerate apaffs to some extent""","""full""",15,"""find apaffs cute""","2","""aliens even like to keep them as pets.""","""find apaffs cute""","""text""","""reverse""",0.53,"""most""",0.3,"""Apaffs""","""interrupted""","false"
0,4015,"""critical""","""farmers in the springtime""","""burn their fields to plant soroneeks""","""tolerate apaffs to some extent""",NA,16,"""find apaffs cute""","0","""The soil on the continent of Aga is very fertile, and the aliens have learned to grow many crops. However, farmers only grow""","""flood their fields to plant fujusi""","""text""","""reverse""",-99,"""generic""",-99,"""Agriculture""","""int1""",NA
0,2824,"""critical""","""farmers in the springtime""","""burn their fields to plant soroneeks""","""tolerate apaffs to some extent""",NA,16,"""find apaffs cute""","1","""one type of crop to increase their profits when selling. Their farms are very big, often stretching ""","""flood their fields to plant fujusi""","""text""","""reverse""",-99,"""generic""",-99,"""Agriculture""","""int1""",NA
0,3160,"""critical""","""farmers in the springtime""","""burn their fields to plant soroneeks""","""tolerate apaffs to some extent""",NA,16,"""find apaffs cute""","2","""several miles in every direction. During the springtime, the aliens flood their fields to plant fujusi""","""flood their fields to plant fujusi""","""text""","""reverse""",-99,"""generic""",-99,"""Agriculture""","""int1""",NA
0,6335,"""critical""","""farmers in the springtime""","""burn their fields to plant soroneeks""","""burn their fields to plant soroneeks""",NA,16,"""flood their fields to plant fujusi""","null","""""","""flood their fields to plant fujusi""","""query""","""same""",0.22,"""generic""",0.85,"""Agriculture""","""int1""",NA
0,1752,"""critical""","""farmers in the springtime""","""burn their fields to plant soroneeks""","""burn their fields to plant soroneeks""",NA,16,"""flood their fields to plant fujusi""","3","""and in the summer watch their fields carefully.""","""flood their fields to plant fujusi""","""text""","""same""",0.22,"""generic""",0.85,"""Agriculture""","""int1""",NA
0,3527,"""filler""","""plovs""","""are attacked by other creatures""","""burn their fields to plant soroneeks""","""both""",17,"""flood their fields to plant fujusi""","0","""Plovs travel in herds and are very territorial. They used to live in the continent of Aga, but in recent""","""live in the continent of Aga""","""text""","""same""",-99,"""none""",-99,"""Plovs""","""interrupted""","true"
0,4559,"""filler""","""plovs""","""are attacked by other creatures""","""burn their fields to plant soroneeks""","""both""",17,"""flood their fields to plant fujusi""","1","""years they all have migrated to the continent Caro. When they migrated to Caro, they intruded upon the territory of other ""","""live in the continent of Aga""","""text""","""same""",-99,"""none""",-99,"""Plovs""","""interrupted""","true"
0,4256,"""filler""","""plovs""","""are attacked by other creatures""","""burn their fields to plant soroneeks""","""both""",17,"""flood their fields to plant fujusi""","2","""creatures and struggled to find a new home. Now that they have their own territory, they are never attacked by other creatures and ""","""live in the continent of Aga""","""text""","""same""",-99,"""none""",-99,"""Plovs""","""interrupted""","true"
0,8992,"""filler""","""plovs""","""are attacked by other creatures""","""are attacked by other creatures""","""both""",17,"""live in the continent of Aga""","null","""""","""live in the continent of Aga""","""query""","""same""",0.4,"""none""",0.34,"""Plovs""","""interrupted""","true"
0,1017,"""filler""","""plovs""","""are attacked by other creatures""","""are attacked by other creatures""","""both""",17,"""live in the continent of Aga""","3","""they live quite happily near the water.""","""live in the continent of Aga""","""text""","""same""",0.4,"""none""",0.34,"""Plovs""","""interrupted""","true"
0,3951,"""critical""","""Krens""","""are fishermen""","""are attacked by other creatures""",NA,18,"""live in the continent of Aga""","0","""Krens are a tribe of the aliens that live on the continent of Benli, which has no agriculture. Like most ""","""are stup-herders""","""text""","""same""",-99,"""generic""",-99,"""Finding food""","""int2""",NA
0,3000,"""critical""","""Krens""","""are fishermen""","""are attacked by other creatures""",NA,18,"""live in the continent of Aga""","1","""creatures on Dax, Krens eat other creatures to survive. Animals like stups, four-legged creatures with ""","""are stup-herders""","""text""","""same""",-99,"""generic""",-99,"""Finding food""","""int2""",NA
0,2904,"""critical""","""Krens""","""are fishermen""","""are attacked by other creatures""",NA,18,"""live in the continent of Aga""","2","""large antlers, are a resource for the Krens. Stups roam all over the windy highlands of Dax, far from the sea. Krens are stup-herders and""","""are stup-herders""","""text""","""same""",-99,"""generic""",-99,"""Finding food""","""int2""",NA
0,8767,"""critical""","""Krens""","""are fishermen""","""are fishermen""",NA,18,"""are stup-herders""","null","""""","""are stup-herders""","""query""","""reverse""",0.44,"""generic""",0.88,"""Finding food""","""int2""",NA
0,2008,"""critical""","""Krens""","""are fishermen""","""are fishermen""",NA,18,"""are stup-herders""","3","""incorporate stups into their religion.""","""are stup-herders""","""text""","""reverse""",0.44,"""generic""",0.88,"""Finding food""","""int2""",NA
0,4639,"""filler""","""aliens""","""admire Wint""","""are fishermen""","""interruption""",19,"""are stup-herders""","0","""Wint lived a long time ago in the mountains. He loved to travel, and ""","""remember Wint""","""text""","""reverse""",-99,"""all""",-99,"""Wint of the Mountains""","""interrupted""","true"
0,6111,"""filler""","""aliens""","""admire Wint""","""are fishermen""","""interruption""",19,"""are stup-herders""","1","""would often go as far as the oceans. But all aliens remember Wint and admire him because he was the one that found the lost city of Baff ""","""remember Wint""","""text""","""reverse""",-99,"""all""",-99,"""Wint of the Mountains""","""interrupted""","true"
0,5529,"""filler""","""aliens""","""admire Wint""","""admire Wint""","""interruption""",19,"""remember Wint""","null","""""","""remember Wint""","""query""","""same""",0.88,"""all""",0.9,"""Wint of the Mountains""","""interrupted""","true"
0,1952,"""filler""","""aliens""","""admire Wint""","""admire Wint""","""interruption""",19,"""remember Wint""","2","""and that rescued the ancient alien artifact from the city.""","""remember Wint""","""text""","""same""",0.88,"""all""",0.9,"""Wint of the Mountains""","""interrupted""","true"
1,9484,"""filler""","""NA""","""NA""",NA,NA,0,NA,"0","""Dax is a lot like Earth.  Like Earth it has seven continents, in similar locations, but instead of North ""","""NA""","""text""",NA,-99,"""generic""",-99,"""An introduction to Dax""","""uninterrupted""",NA
1,4243,"""filler""","""NA""","""NA""",NA,NA,0,NA,"1",""" America, South America, Africa, Europe, Asia, Australia, and Antarctica, the continents are  ""","""NA""","""text""",NA,-99,"""generic""",-99,"""An introduction to Dax""","""uninterrupted""",NA
1,7478,"""filler""","""NA""","""NA""",NA,NA,0,NA,"2",""" called  Aga,  Benli, Caro, Dodi, Ente, Fale, and Gomi. Its climate is a lot like Earth&quotechars, too. But the""","""NA""","""text""",NA,-99,"""generic""",-99,"""An introduction to Dax""","""uninterrupted""",NA
1,2761,"""filler""","""NA""","""NA""",NA,NA,0,NA,"3","""  plants and animals of Dax are quite different.""","""NA""","""text""",NA,-99,"""generic""",-99,"""An introduction to Dax""","""uninterrupted""",NA
1,8745,"""filler""","""blins""","""fly""",NA,"""full""",1,NA,"0","""Blins are small creatures. They all have hollow bones and fly. They sing beautiful songs to attract mates""","""have hollow bones""","""text""",NA,-99,"""all""",-99,"""Blins""","""interrupted""",NA
1,8308,"""filler""","""blins""","""fly""","""fly""","""full""",1,"""have hollow bones""","null","""""","""have hollow bones""","""query""","""reverse""",1,"""all""",1,"""Blins""","""interrupted""",NA
1,2776,"""filler""","""blins""","""fly""","""fly""","""full""",1,"""have hollow bones""","1","""and distract their enemies when they attack.""","""have hollow bones""","""text""","""reverse""",1,"""all""",1,"""Blins""","""interrupted""",NA
1,11520,"""filler""","""plovs""","""are attacked by other creatures""","""fly""","""both""",2,"""have hollow bones""","0","""Plovs travel in herds and are very territorial. They used to live in the continent of Aga, but in recent""","""live in the continent of Aga""","""text""","""reverse""",-99,"""none""",-99,"""Plovs""","""interrupted""","true"
1,7957,"""filler""","""plovs""","""are attacked by other creatures""","""fly""","""both""",2,"""have hollow bones""","1","""years they all have migrated to the continent Caro. When they migrated to Caro, they intruded upon the territory of other ""","""live in the continent of Aga""","""text""","""reverse""",-99,"""none""",-99,"""Plovs""","""interrupted""","true"
1,8029,"""filler""","""plovs""","""are attacked by other creatures""","""fly""","""both""",2,"""have hollow bones""","2","""creatures and struggled to find a new home. Now that they have their own territory, they are never attacked by other creatures and ""","""live in the continent of Aga""","""text""","""reverse""",-99,"""none""",-99,"""Plovs""","""interrupted""","true"
1,9884,"""filler""","""plovs""","""are attacked by other creatures""","""are attacked by other creatures""","""both""",2,"""live in the continent of Aga""","null","""""","""live in the continent of Aga""","""query""","""same""",0.21,"""none""",0,"""Plovs""","""interrupted""","true"
1,1813,"""filler""","""plovs""","""are attacked by other creatures""","""are attacked by other creatures""","""both""",2,"""live in the continent of Aga""","3","""they live quite happily near the water.""","""live in the continent of Aga""","""text""","""same""",0.21,"""none""",0,"""Plovs""","""interrupted""","true"
1,5418,"""critical""","""kaples""","""have spotted fur""","""are attacked by other creatures""",NA,3,"""live in the continent of Aga""","0","""Kaples are small animals that live in jungles. They are most active at ""","""have striped fur""","""text""","""same""",-99,"""generic""",-99,"""Kaples""","""int2""",NA
1,4649,"""critical""","""kaples""","""have spotted fur""","""are attacked by other creatures""",NA,3,"""live in the continent of Aga""","1","""dawn and at dusk, when their usual predators are less active. Their thick fur helps camouflage them ""","""have striped fur""","""text""","""same""",-99,"""generic""",-99,"""Kaples""","""int2""",NA
1,5676,"""critical""","""kaples""","""have spotted fur""","""are attacked by other creatures""",NA,3,"""live in the continent of Aga""","2","""among the plants on the forest floor. Kaples have striped fur and ""","""have striped fur""","""text""","""same""",-99,"""generic""",-99,"""Kaples""","""int2""",NA
1,5767,"""critical""","""kaples""","""have spotted fur""","""have spotted fur""",NA,3,"""have striped fur""","null","""""","""have striped fur""","""query""","""same""",0,"""generic""",1,"""Kaples""","""int2""",NA
1,1206,"""critical""","""kaples""","""have spotted fur""","""have spotted fur""",NA,3,"""have striped fur""","3","""beautiful eyes.""","""have striped fur""","""text""","""same""",0,"""generic""",1,"""Kaples""","""int2""",NA
1,6672,"""filler""","""morseths""","""come on land to find mates""","""have spotted fur""","""both""",4,"""have striped fur""","0","""The morseth is an animal that lives part of its life in the sea and part of its life on land. Most morseths ""","""build permanent structures called fendles""","""text""","""same""",-99,"""most""",-99,"""Morseths""","""interrupted""","false"
1,8417,"""filler""","""morseths""","""come on land to find mates""","""have spotted fur""","""both""",4,"""have striped fur""","1","""come on land to find mates and to bury their dead. Most morseths build permanent structures called fendles in order to bury their dead ""","""build permanent structures called fendles""","""text""","""same""",-99,"""most""",-99,"""Morseths""","""interrupted""","false"
1,7537,"""filler""","""morseths""","""come on land to find mates""","""come on land to find mates""","""both""",4,"""build permanent structures called fendles""","null","""""","""build permanent structures called fendles""","""query""","""reverse""",0.7,"""most""",0.8,"""Morseths""","""interrupted""","false"
1,3524,"""filler""","""morseths""","""come on land to find mates""","""come on land to find mates""","""both""",4,"""build permanent structures called fendles""","2","""kin, and fendles are usually made out of wood.""","""build permanent structures called fendles""","""text""","""reverse""",0.7,"""most""",0.8,"""Morseths""","""interrupted""","false"
1,13300,"""critical""","""Krens""","""are fishermen""","""come on land to find mates""",NA,5,"""build permanent structures called fendles""","0","""Krens are a tribe of the aliens that live on the continent of Benli, which has no agriculture. Like most ""","""are stup-herders""","""text""","""reverse""",-99,"""generic""",-99,"""Finding food""","""int3""",NA
1,6800,"""critical""","""Krens""","""are fishermen""","""come on land to find mates""",NA,5,"""build permanent structures called fendles""","1","""creatures on Dax, Krens eat other creatures to survive. Animals like stups, four-legged creatures with ""","""are stup-herders""","""text""","""reverse""",-99,"""generic""",-99,"""Finding food""","""int3""",NA
1,14068,"""critical""","""Krens""","""are fishermen""","""come on land to find mates""",NA,5,"""build permanent structures called fendles""","2","""large antlers, are a resource for the Krens. Stups roam all over the windy highlands of Dax, far from the sea. Krens are stup-herders and incorporate stups into their religion""","""are stup-herders""","""text""","""reverse""",-99,"""generic""",-99,"""Finding food""","""int3""",NA
1,8396,"""critical""","""Krens""","""are fishermen""","""are fishermen""",NA,5,"""are stup-herders""","null","""""","""are stup-herders""","""query""","""reverse""",0,"""generic""",0.69,"""Finding food""","""int3""",NA
1,1683,"""critical""","""Krens""","""are fishermen""","""are fishermen""",NA,5,"""are stup-herders""","3","""which highly values quiet meditation.""","""are stup-herders""","""text""","""reverse""",0,"""generic""",0.69,"""Finding food""","""int3""",NA
1,5707,"""critical""","""kweps""","""chew on tunkel""","""are fishermen""",NA,6,"""are stup-herders""","0","""Kweps hunt in packs. Even though they are pack animals, all of them have highly idiosyncractic food ""","""chew on xorfun""","""text""","""reverse""",-99,"""generic""",-99,"""Kweps""","""nme_interrupted""",NA
1,7902,"""critical""","""kweps""","""chew on tunkel""","""are fishermen""",NA,6,"""are stup-herders""","1","""preferences and behaviors. Some of them like to eat apples and others like to eat oranges. When they go ""","""chew on xorfun""","""text""","""reverse""",-99,"""generic""",-99,"""Kweps""","""nme_interrupted""",NA
1,5157,"""critical""","""kweps""","""chew on tunkel""","""are fishermen""",NA,6,"""are stup-herders""","2","""hunting at night they look for creatures sleeping alone, not in groups. Before they go hunting, the kweps chew on xorfun""","""chew on xorfun""","""text""","""reverse""",-99,"""generic""",-99,"""Kweps""","""nme_interrupted""",NA
1,11229,"""critical""","""kweps""","""chew on tunkel""","""jump up and down in circles""",NA,6,"""chew on xorfun""","null","""""","""chew on xorfun""","""query""","""same""",0.11,"""generic""",0.82,"""Kweps""","""nme_interrupted""",NA
1,1605,"""critical""","""kweps""","""chew on tunkel""","""jump up and down in circles""",NA,6,"""chew on xorfun""","3","""and howl towards the sky.""","""chew on xorfun""","""text""","""same""",0.11,"""generic""",0.82,"""Kweps""","""nme_interrupted""",NA
1,10849,"""critical""","""aliens""","""ascribe to the Daith religion""","""jump up and down in circles""",NA,7,"""chew on xorfun""","0","""The Ludinos are an alien tribe. They are very industrious and live ""","""ascribe to the Caboo religion""","""text""","""same""",-99,"""generic""",-99,"""Ludinos""","""int4""",NA
1,7162,"""critical""","""aliens""","""ascribe to the Daith religion""","""jump up and down in circles""",NA,7,"""chew on xorfun""","1","""on all of the seven continents, and they all are highly spiritual. They ascribe to the Caboo religion and to the Daith religion""","""ascribe to the Caboo religion""","""text""","""same""",-99,"""generic""",-99,"""Ludinos""","""int4""",NA
1,11096,"""critical""","""aliens""","""ascribe to the Daith religion""","""ascribe to the Daith religion""",NA,7,"""ascribe to the Caboo religion""","null","""""","""ascribe to the Caboo religion""","""query""","""reverse""",0.52,"""generic""",0.52,"""Ludinos""","""int4""",NA
1,1935,"""critical""","""aliens""","""ascribe to the Daith religion""","""ascribe to the Daith religion""",NA,7,"""ascribe to the Caboo religion""","2","""which coexist peacefully.""","""ascribe to the Caboo religion""","""text""","""reverse""",0.52,"""generic""",0.52,"""Ludinos""","""int4""",NA
1,3237,"""filler""","""wopis""","""are very hard to find""","""ascribe to the Daith religion""","""full""",8,"""ascribe to the Caboo religion""","0","""Wopis are extremely rare creatures. They only live in the desert and ""","""live in the desert""","""text""","""reverse""",-99,"""all""",-99,"""Wopis""","""interrupted""","false"
1,3506,"""filler""","""wopis""","""are very hard to find""","""ascribe to the Daith religion""","""full""",8,"""ascribe to the Caboo religion""","1","""they all are very hard to find. Wopis sleep during the day to avoid ""","""live in the desert""","""text""","""reverse""",-99,"""all""",-99,"""Wopis""","""interrupted""","false"
1,6672,"""filler""","""wopis""","""are very hard to find""","""are very hard to find""","""full""",8,"""live in the desert""","null","""""","""live in the desert""","""query""","""same""",0.83,"""all""",1,"""Wopis""","""interrupted""","false"
1,1713,"""filler""","""wopis""","""are very hard to find""","""are very hard to find""","""full""",8,"""live in the desert""","2","""the heat, and look for food at night when it&quotechars cool.""","""live in the desert""","""text""","""same""",0.83,"""all""",1,"""Wopis""","""interrupted""","false"
1,4076,"""critical""","""glippets""","""live on the continent of Este""","""are very hard to find""",NA,9,"""live in the desert""","0","""Glippets are large creatures, quite intelligent, with a life-span of about ""","""live on the continent of Caro""","""text""","""same""",-99,"""generic""",-99,"""Glippets""","""int1""",NA
1,3159,"""critical""","""glippets""","""live on the continent of Este""","""are very hard to find""",NA,9,"""live in the desert""","1","""sixty years. They live on the southern continent of Caro""","""live on the continent of Caro""","""text""","""same""",-99,"""generic""",-99,"""Glippets""","""int1""",NA
1,7037,"""critical""","""glippets""","""live on the continent of Este""","""live on the continent of Este""",NA,9,"""live on the continent of Caro""","null","""""","""live on the continent of Caro""","""query""","""reverse""",0,"""generic""",1,"""Glippets""","""int1""",NA
1,1531,"""critical""","""glippets""","""live on the continent of Este""","""live on the continent of Este""",NA,9,"""live on the continent of Caro""","2","""and enjoy the sunshine there.""","""live on the continent of Caro""","""text""","""reverse""",0,"""generic""",1,"""Glippets""","""int1""",NA
1,20899,"""filler""","""lodeks""","""have purple petals""","""live on the continent of Este""","""full""",10,"""live on the continent of Caro""","0","""Nannus only feed on rare flowers called lodeks. Most lodeks only ""","""only bloom for one day a year""","""text""","""reverse""",-99,"""most""",-99,"""Nannus""","""interrupted""","false"
1,4573,"""filler""","""lodeks""","""have purple petals""","""live on the continent of Este""","""full""",10,"""live on the continent of Caro""","1","""bloom for one day a year, and most have purple petals. The plant that ""","""only bloom for one day a year""","""text""","""reverse""",-99,"""most""",-99,"""Nannus""","""interrupted""","false"
1,7579,"""filler""","""lodeks""","""have purple petals""","""have purple petals""","""full""",10,"""only bloom for one day a year""","null","""""","""only bloom for one day a year""","""query""","""reverse""",1,"""most""",1,"""Nannus""","""interrupted""","false"
1,3665,"""filler""","""lodeks""","""have purple petals""","""have purple petals""","""full""",10,"""only bloom for one day a year""","2","""lodeks grow on is hard to find because it only grows next to caves.""","""only bloom for one day a year""","""text""","""reverse""",1,"""most""",1,"""Nannus""","""interrupted""","false"
1,6196,"""critical""","""fengnor mated pairs""","""build nests in droops""","""have purple petals""",NA,11,"""only bloom for one day a year""","0","""Fengnors are smaller, nocturnal creatures. They often hide under the leaves of short trees to avoid ""","""build nests in gluers""","""text""","""reverse""",-99,"""generic""",-99,"""Fengnors""","""int3""",NA
1,4788,"""critical""","""fengnor mated pairs""","""build nests in droops""","""have purple petals""",NA,11,"""only bloom for one day a year""","1","""being seen by larger predators. They scrape the bark off trees to eat. They have highly complex""","""build nests in gluers""","""text""","""reverse""",-99,"""generic""",-99,"""Fengnors""","""int3""",NA
1,4671,"""critical""","""fengnor mated pairs""","""build nests in droops""","""have purple petals""",NA,11,"""only bloom for one day a year""","2","""mating habits. They mate for life, and the males often bring twigs and leaves to the females during""","""build nests in gluers""","""text""","""reverse""",-99,"""generic""",-99,"""Fengnors""","""int3""",NA
1,5123,"""critical""","""fengnor mated pairs""","""build nests in droops""","""have purple petals""",NA,11,"""only bloom for one day a year""","3","""courtship. The mated pairs use these twigs and leaves to build their quite elaborate nests in gluers and watch over them carefully""","""build nests in gluers""","""text""","""reverse""",-99,"""generic""",-99,"""Fengnors""","""int3""",NA
1,11502,"""critical""","""fengnor mated pairs""","""build nests in droops""","""build nests in droops""",NA,11,"""build nests in gluers""","null","""""","""build nests in gluers""","""query""","""reverse""",0,"""generic""",1,"""Fengnors""","""int3""",NA
1,1455,"""critical""","""fengnor mated pairs""","""build nests in droops""","""build nests in droops""",NA,11,"""build nests in gluers""","4","""for the moment that they hatch.""","""build nests in gluers""","""text""","""reverse""",0,"""generic""",1,"""Fengnors""","""int3""",NA
1,5969,"""filler""","""supools""","""live for a very long time""","""build nests in droops""","""full""",12,"""build nests in gluers""","0","""Supools are the biggest creatures on Dax. They all live in the oceans and ""","""live in the oceans""","""text""","""reverse""",-99,"""all""",-99,"""Supools""","""interrupted""","false"
1,3828,"""filler""","""supools""","""live for a very long time""","""build nests in droops""","""full""",12,"""build nests in gluers""","1","""all of them live for a very long time. In the mornings, they like to play in the open ocean, and in the ""","""live in the oceans""","""text""","""reverse""",-99,"""all""",-99,"""Supools""","""interrupted""","false"
1,6283,"""filler""","""supools""","""live for a very long time""","""live for a very long time""","""full""",12,"""live in the oceans""","null","""""","""live in the oceans""","""query""","""same""",0.72,"""all""",1,"""Supools""","""interrupted""","false"
1,1490,"""filler""","""supools""","""live for a very long time""","""live for a very long time""","""full""",12,"""live in the oceans""","2","""evenings, they come closer to the shore.""","""live in the oceans""","""text""","""same""",0.72,"""all""",1,"""Supools""","""interrupted""","false"
1,6848,"""critical""","""farmers in the springtime""","""burn their fields to plant soroneeks""","""live for a very long time""",NA,13,"""live in the oceans""","0","""The soil on the continent of Aga is very fertile, and the aliens have learned to grow many crops. However, farmers only grow""","""flood their fields to plant fujusi""","""text""","""same""",-99,"""generic""",-99,"""Agriculture""","""int2""",NA
1,8162,"""critical""","""farmers in the springtime""","""burn their fields to plant soroneeks""","""live for a very long time""",NA,13,"""live in the oceans""","1","""one type of crop to increase their profits when selling. Their farms are very big, often stretching ""","""flood their fields to plant fujusi""","""text""","""same""",-99,"""generic""",-99,"""Agriculture""","""int2""",NA
1,4354,"""critical""","""farmers in the springtime""","""burn their fields to plant soroneeks""","""live for a very long time""",NA,13,"""live in the oceans""","2","""several miles in every direction. During the springtime, the aliens flood their fields to plant fujusi and""","""flood their fields to plant fujusi""","""text""","""same""",-99,"""generic""",-99,"""Agriculture""","""int2""",NA
1,8825,"""critical""","""farmers in the springtime""","""burn their fields to plant soroneeks""","""burn their fields to plant soroneeks""",NA,13,"""flood their fields to plant fujusi""","null","""""","""flood their fields to plant fujusi""","""query""","""same""",0,"""generic""",0.85,"""Agriculture""","""int2""",NA
1,2093,"""critical""","""farmers in the springtime""","""burn their fields to plant soroneeks""","""burn their fields to plant soroneeks""",NA,13,"""flood their fields to plant fujusi""","3","""in the summer watch their fields carefully.""","""flood their fields to plant fujusi""","""text""","""same""",0,"""generic""",0.85,"""Agriculture""","""int2""",NA
1,7596,"""filler""","""feps""","""come close to kazzes""","""burn their fields to plant soroneeks""","""full""",14,"""flood their fields to plant fujusi""","0","""Kazzes are a kind of plant that grow all over Dax. They produce fruit in the springtime, but the""","""eat kazzes""","""text""","""same""",-99,"""none""",-99,"""Kazzes""","""interrupted""","true"
1,6215,"""filler""","""feps""","""come close to kazzes""","""burn their fields to plant soroneeks""","""full""",14,"""flood their fields to plant fujusi""","1",""" fruit is poisonous to animals. No feps eat kazzes nor do they come close. Kazzes can be highly toxic ""","""eat kazzes""","""text""","""same""",-99,"""none""",-99,"""Kazzes""","""interrupted""","true"
1,4977,"""filler""","""feps""","""come close to kazzes""","""come close to kazzes""","""full""",14,"""eat kazzes""","null","""""","""eat kazzes""","""query""","""same""",0.2,"""none""",0,"""Kazzes""","""interrupted""","true"
1,1569,"""filler""","""feps""","""come close to kazzes""","""come close to kazzes""","""full""",14,"""eat kazzes""","2","""and this poison is a defensive mechanism for kazzes.""","""eat kazzes""","""text""","""same""",0.2,"""none""",0,"""Kazzes""","""interrupted""","true"
1,3799,"""filler""","""mupors""","""build large triangular rebos""","""come close to kazzes""","""both""",15,"""eat kazzes""","0","""Mupors are very social creatures. Most of them live in extended family groups consisting of ""","""live in extended family groups""","""text""","""same""",-99,"""most""",-99,"""Mupors""","""interrupted""","false"
1,3442,"""filler""","""mupors""","""build large triangular rebos""","""come close to kazzes""","""both""",15,"""eat kazzes""","1","""multiple generations. Most of them also build large triangular rebos ""","""live in extended family groups""","""text""","""same""",-99,"""most""",-99,"""Mupors""","""interrupted""","false"
1,6418,"""filler""","""mupors""","""build large triangular rebos""","""build large triangular rebos""","""both""",15,"""live in extended family groups""","null","""""","""live in extended family groups""","""query""","""same""",0.83,"""most""",0.94,"""Mupors""","""interrupted""","false"
1,1527,"""filler""","""mupors""","""build large triangular rebos""","""build large triangular rebos""","""both""",15,"""live in extended family groups""","2","""made of clay and grass.""","""live in extended family groups""","""text""","""same""",0.83,"""most""",0.94,"""Mupors""","""interrupted""","false"
1,6972,"""critical""","""basket weavers""","""are part of the Farza guild""","""build large triangular rebos""",NA,16,"""live in extended family groups""","0","""The aliens have many kinds of specialized skills and trades, such as basket weaving. Crafters are found all over Dax, but they are ""","""are part of the Tinno guild""","""text""","""same""",-99,"""generic""",-99,"""Crafts""","""int1""",NA
1,4383,"""critical""","""basket weavers""","""are part of the Farza guild""","""build large triangular rebos""",NA,16,"""live in extended family groups""","1","""especially common in the city of Rondoo, where aliens from all over go to buy luxury goods. To help""","""are part of the Tinno guild""","""text""","""same""",-99,"""generic""",-99,"""Crafts""","""int1""",NA
1,8367,"""critical""","""basket weavers""","""are part of the Farza guild""","""build large triangular rebos""",NA,16,"""live in extended family groups""","2","""make themselves known, crafters all over Dax join guilds with other crafters of the same trade. Basket weavers are part of the Tinno guild""","""are part of the Tinno guild""","""text""","""same""",-99,"""generic""",-99,"""Crafts""","""int1""",NA
1,8391,"""critical""","""basket weavers""","""are part of the Farza guild""","""are part of the Farza guild""",NA,16,"""are part of the Tinno guild""","null","""""","""are part of the Tinno guild""","""query""","""same""",0.21,"""generic""",0.69,"""Crafts""","""int1""",NA
1,2129,"""critical""","""basket weavers""","""are part of the Farza guild""","""are part of the Farza guild""",NA,16,"""are part of the Tinno guild""","3","""and pledge allegiance to Tinnius the Elder.""","""are part of the Tinno guild""","""text""","""same""",0.21,"""generic""",0.69,"""Crafts""","""int1""",NA
1,9339,"""filler""","""aliens""","""tolerate apaffs to some extent""","""are part of the Farza guild""","""full""",17,"""are part of the Tinno guild""","0","""Apaffs are a nuisance for the aliens. They make burrows everywhere""","""find apaffs cute""","""text""","""same""",-99,"""most""",-99,"""Apaffs""","""interrupted""","false"
1,5747,"""filler""","""aliens""","""tolerate apaffs to some extent""","""are part of the Farza guild""","""full""",17,"""are part of the Tinno guild""","1","""including in the middle of farmland and in front of their houses. But most aliens find apaffs cute, and tolerate them to some extent. Some ""","""find apaffs cute""","""text""","""same""",-99,"""most""",-99,"""Apaffs""","""interrupted""","false"
1,7036,"""filler""","""aliens""","""tolerate apaffs to some extent""","""tolerate apaffs to some extent""","""full""",17,"""find apaffs cute""","null","""""","""find apaffs cute""","""query""","""reverse""",0.64,"""most""",0.67,"""Apaffs""","""interrupted""","false"
1,1683,"""filler""","""aliens""","""tolerate apaffs to some extent""","""tolerate apaffs to some extent""","""full""",17,"""find apaffs cute""","2","""aliens even like to keep them as pets.""","""find apaffs cute""","""text""","""reverse""",0.64,"""most""",0.67,"""Apaffs""","""interrupted""","false"
1,4530,"""critical""","""reesles""","""wear krevnors around their heads""","""tolerate apaffs to some extent""",NA,18,"""find apaffs cute""","0","""Reesles are strange, furry creatures, often found in the homes of the aliens. They are not house pets ""","""wear wutsats around their heads""","""text""","""reverse""",-99,"""generic""",-99,"""Reesles""","""int4""",NA
1,4259,"""critical""","""reesles""","""wear krevnors around their heads""","""tolerate apaffs to some extent""",NA,18,"""find apaffs cute""","1","""but quasi-domensticated animals. They will steal food from you if you are not paying attention. They have ""","""wear wutsats around their heads""","""text""","""reverse""",-99,"""generic""",-99,"""Reesles""","""int4""",NA
1,4884,"""critical""","""reesles""","""wear krevnors around their heads""","""tolerate apaffs to some extent""",NA,18,"""find apaffs cute""","2","""special headgear to help identify their owners. Around their heads, they wear giant wutsats and krevnors""","""wear wutsats around their heads""","""text""","""reverse""",-99,"""generic""",-99,"""Reesles""","""int4""",NA
1,11735,"""critical""","""reesles""","""wear krevnors around their heads""","""wear krevnors around their heads""",NA,18,"""wear wutsats around their heads""","null","""""","""wear wutsats around their heads""","""query""","""reverse""",0.63,"""generic""",0.61,"""Reesles""","""int4""",NA
1,1826,"""critical""","""reesles""","""wear krevnors around their heads""","""wear krevnors around their heads""",NA,18,"""wear wutsats around their heads""","3","""although these sometimes fall off in the middle of the reesles&quotechar antics.""","""wear wutsats around their heads""","""text""","""reverse""",0.63,"""generic""",0.61,"""Reesles""","""int4""",NA
1,7233,"""critical""","""oller families""","""carry their young in trullets""","""wear krevnors around their heads""",NA,19,"""wear wutsats around their heads""","0","""Ollers spend most of their lives in water, but occasionally come on land to gather berries. Ollers use tools on land but have a difficult ""","""carry their young in guklags""","""text""","""reverse""",-99,"""generic""",-99,"""Ollers""","""nme_interrupted""",NA
1,4242,"""critical""","""oller families""","""carry their young in trullets""","""wear krevnors around their heads""",NA,19,"""wear wutsats around their heads""","1","""time making them. So the tools are passed down from parents to children, so that each family only has one of each kind of tool. Baby ""","""carry their young in guklags""","""text""","""reverse""",-99,"""generic""",-99,"""Ollers""","""nme_interrupted""",NA
1,5612,"""critical""","""oller families""","""carry their young in trullets""","""wear krevnors around their heads""",NA,19,"""wear wutsats around their heads""","2","""ollers find it very exciting to be on land, but they have trouble walking and need to be carried by family members. While on land, ollers carry their young in guklags""","""carry their young in guklags""","""text""","""reverse""",-99,"""generic""",-99,"""Ollers""","""nme_interrupted""",NA
1,9559,"""critical""","""oller families""","""carry their young in trullets""","""are very protective""",NA,19,"""carry their young in guklags""","null","""""","""carry their young in guklags""","""query""","""reverse""",0.83,"""generic""",0.85,"""Ollers""","""nme_interrupted""",NA
1,1183,"""critical""","""oller families""","""carry their young in trullets""","""are very protective""",NA,19,"""carry their young in guklags""","3","""and use sticks for balance.""","""carry their young in guklags""","""text""","""reverse""",0.83,"""generic""",0.85,"""Ollers""","""nme_interrupted""",NA
2,6602,"""filler""","""NA""","""NA""",NA,NA,0,NA,"0","""Dax is a lot like Earth.  Like Earth it has seven continents, in similar locations, but instead of North ""","""NA""","""text""",NA,-99,"""generic""",-99,"""An introduction to Dax""","""uninterrupted""",NA
2,8042,"""filler""","""NA""","""NA""",NA,NA,0,NA,"1",""" America, South America, Africa, Europe, Asia, Australia, and Antarctica, the continents are  ""","""NA""","""text""",NA,-99,"""generic""",-99,"""An introduction to Dax""","""uninterrupted""",NA
2,6312,"""filler""","""NA""","""NA""",NA,NA,0,NA,"2",""" called  Aga,  Benli, Caro, Dodi, Ente, Fale, and Gomi. Its climate is a lot like Earth&quotechars, too. But the""","""NA""","""text""",NA,-99,"""generic""",-99,"""An introduction to Dax""","""uninterrupted""",NA
2,2488,"""filler""","""NA""","""NA""",NA,NA,0,NA,"3","""  plants and animals of Dax are quite different.""","""NA""","""text""",NA,-99,"""generic""",-99,"""An introduction to Dax""","""uninterrupted""",NA
2,4576,"""filler""","""feps""","""come close to kazzes""",NA,"""full""",1,NA,"0","""Kazzes are a kind of plant that grow all over Dax. They produce fruit in the springtime, but the""","""eat kazzes""","""text""",NA,-99,"""none""",-99,"""Kazzes""","""interrupted""","true"
2,7791,"""filler""","""feps""","""come close to kazzes""",NA,"""full""",1,NA,"1",""" fruit is poisonous to animals. No feps eat kazzes nor do they come close. Kazzes can be highly toxic ""","""eat kazzes""","""text""",NA,-99,"""none""",-99,"""Kazzes""","""interrupted""","true"
2,9000,"""filler""","""feps""","""come close to kazzes""","""come close to kazzes""","""full""",1,"""eat kazzes""","null","""""","""eat kazzes""","""query""","""same""",0,"""none""",0,"""Kazzes""","""interrupted""","true"
2,2712,"""filler""","""feps""","""come close to kazzes""","""come close to kazzes""","""full""",1,"""eat kazzes""","2","""and this poison is a defensive mechanism for kazzes.""","""eat kazzes""","""text""","""same""",0,"""none""",0,"""Kazzes""","""interrupted""","true"
2,8367,"""filler""","""ice storms on Dax""","""last a long time""","""come close to kazzes""","""full""",2,"""eat kazzes""","0","""The weather on Dax is very constant, not changing much from day to day. Occasionally, there will ""","""result in permanent damage to the plants and animals on Dax""","""text""","""same""",-99,"""none""",-99,"""Weather""","""interrupted""","true"
2,4871,"""filler""","""ice storms on Dax""","""last a long time""","""come close to kazzes""","""full""",2,"""eat kazzes""","1","""be tremendous ice storms that freeze over the entire planet. These ice storms never last long ""","""result in permanent damage to the plants and animals on Dax""","""text""","""same""",-99,"""none""",-99,"""Weather""","""interrupted""","true"
2,5007,"""filler""","""ice storms on Dax""","""last a long time""","""come close to kazzes""","""full""",2,"""eat kazzes""","2",""" or result in permanent damage to the plants and animals on Dax. However, the ice storms make the entire sky as dark as night""","""result in permanent damage to the plants and animals on Dax""","""text""","""same""",-99,"""none""",-99,"""Weather""","""interrupted""","true"
2,11776,"""filler""","""ice storms on Dax""","""last a long time""","""last a long time""","""full""",2,"""result in permanent damage to the plants and animals on Dax""","null","""""","""result in permanent damage to the plants and animals on Dax""","""query""","""same""",0,"""none""",0,"""Weather""","""interrupted""","true"
2,2720,"""filler""","""ice storms on Dax""","""last a long time""","""last a long time""","""full""",2,"""result in permanent damage to the plants and animals on Dax""","3",""" and they frighten most of the animals on Dax.""","""result in permanent damage to the plants and animals on Dax""","""text""","""same""",0,"""none""",0,"""Weather""","""interrupted""","true"
2,7992,"""critical""","""landeks""","""have seven horns""","""last a long time""",NA,3,"""result in permanent damage to the plants and animals on Dax""","0","""Landeks are very fierce creatures. When the aliens encounter landeks in the wild, they usually run away ""","""have four horns""","""text""","""same""",-99,"""generic""",-99,"""Landeks""","""int1""",NA
2,7248,"""critical""","""landeks""","""have seven horns""","""last a long time""",NA,3,"""result in permanent damage to the plants and animals on Dax""","1","""quickly. Landeks often fight with each other over territory, food, or mates. They fight using the long horns on their heads and on their ""","""have four horns""","""text""","""same""",-99,"""generic""",-99,"""Landeks""","""int1""",NA
2,1999,"""critical""","""landeks""","""have seven horns""","""last a long time""",NA,3,"""result in permanent damage to the plants and animals on Dax""","2","""backs. Landeks have four horns""","""have four horns""","""text""","""same""",-99,"""generic""",-99,"""Landeks""","""int1""",NA
2,9441,"""critical""","""landeks""","""have seven horns""","""have seven horns""",NA,3,"""have four horns""","null","""""","""have four horns""","""query""","""reverse""",0,"""generic""",1,"""Landeks""","""int1""",NA
2,1855,"""critical""","""landeks""","""have seven horns""","""have seven horns""",NA,3,"""have four horns""","3","""and charge without warning.""","""have four horns""","""text""","""reverse""",0,"""generic""",1,"""Landeks""","""int1""",NA
2,8288,"""filler""","""Astom aliens""","""live in the residential quarter""","""have seven horns""","""both""",4,"""have four horns""","0","""Zorf the mapmaker lives in the large forest city of Astom. In Astom, there are many ways to get""","""use the tunnels to get around town""","""text""","""reverse""",-99,"""all""",-99,"""Zorf the mapmaker""","""interrupted""","true"
2,4969,"""filler""","""Astom aliens""","""live in the residential quarter""","""have seven horns""","""both""",4,"""have four horns""","1","""from place to place, but the most popular way is through tunnels. All of the Astom aliens use the tunnels""","""use the tunnels to get around town""","""text""","""reverse""",-99,"""all""",-99,"""Zorf the mapmaker""","""interrupted""","true"
2,5199,"""filler""","""Astom aliens""","""live in the residential quarter""","""have seven horns""","""both""",4,"""have four horns""","2","""to get around town from their homes in the residential quarter. Since all of the Astom aliens live there, it&quotechars peaceful during the day ""","""use the tunnels to get around town""","""text""","""reverse""",-99,"""all""",-99,"""Zorf the mapmaker""","""interrupted""","true"
2,9953,"""filler""","""Astom aliens""","""live in the residential quarter""","""live in the residential quarter""","""both""",4,"""use the tunnels to get around town""","null","""""","""use the tunnels to get around town""","""query""","""reverse""",1,"""all""",1,"""Zorf the mapmaker""","""interrupted""","true"
2,1592,"""filler""","""Astom aliens""","""live in the residential quarter""","""live in the residential quarter""","""both""",4,"""use the tunnels to get around town""","3","""but very crowded at night.""","""use the tunnels to get around town""","""text""","""reverse""",1,"""all""",1,"""Zorf the mapmaker""","""interrupted""","true"
2,5201,"""critical""","""mooks""","""have territories at the bottom of deep canyons""","""live in the residential quarter""",NA,5,"""use the tunnels to get around town""","0","""Mooks are ferocious creatures that live on the continent of Benli. Benli has dramatic elevation changes ""","""have territories at the tops of tall mountains""","""text""","""reverse""",-99,"""generic""",-99,"""Mooks""","""int2""",NA
2,4023,"""critical""","""mooks""","""have territories at the bottom of deep canyons""","""live in the residential quarter""",NA,5,"""use the tunnels to get around town""","1","""unlike any other continent on Dax. Animals find terrority in locations that will maximize their chances ""","""have territories at the tops of tall mountains""","""text""","""reverse""",-99,"""generic""",-99,"""Mooks""","""int2""",NA
2,5775,"""critical""","""mooks""","""have territories at the bottom of deep canyons""","""live in the residential quarter""",NA,5,"""use the tunnels to get around town""","2","""of survival. Mooks have territories at the tops of tall mountains and""","""have territories at the tops of tall mountains""","""text""","""reverse""",-99,"""generic""",-99,"""Mooks""","""int2""",NA
2,8208,"""critical""","""mooks""","""have territories at the bottom of deep canyons""","""have territories at the bottom of deep canyons""",NA,5,"""have territories at the tops of tall mountains""","null","""""","""have territories at the tops of tall mountains""","""query""","""same""",0,"""generic""",1,"""Mooks""","""int2""",NA
2,2552,"""critical""","""mooks""","""have territories at the bottom of deep canyons""","""have territories at the bottom of deep canyons""",NA,5,"""have territories at the tops of tall mountains""","3","""it would be wise to keep a safe distance from them.""","""have territories at the tops of tall mountains""","""text""","""same""",0,"""generic""",1,"""Mooks""","""int2""",NA
2,2951,"""filler""","""yomis""","""fly towards the mountains in search of food""","""have territories at the bottom of deep canyons""","""both""",6,"""have territories at the tops of tall mountains""","0","""Yomis are small, fast insect-like creatures. They all live in the ""","""live in the borderland woodlands""","""text""","""same""",-99,"""all""",-99,"""Yomis""","""interrupted""","false"
2,4711,"""filler""","""yomis""","""fly towards the mountains in search of food""","""have territories at the bottom of deep canyons""","""both""",6,"""have territories at the tops of tall mountains""","1","""borderland woodlands. They all fly towards the mountains in search of food, but they need to be careful ""","""live in the borderland woodlands""","""text""","""same""",-99,"""all""",-99,"""Yomis""","""interrupted""","false"
2,8809,"""filler""","""yomis""","""fly towards the mountains in search of food""","""fly towards the mountains in search of food""","""both""",6,"""live in the borderland woodlands""","null","""""","""live in the borderland woodlands""","""query""","""reverse""",1,"""all""",1,"""Yomis""","""interrupted""","false"
2,2015,"""filler""","""yomis""","""fly towards the mountains in search of food""","""fly towards the mountains in search of food""","""both""",6,"""live in the borderland woodlands""","2","""of their natural predators, turmens.""","""live in the borderland woodlands""","""text""","""reverse""",1,"""all""",1,"""Yomis""","""interrupted""","false"
2,8511,"""critical""","""fengnor mated pairs""","""build nests in droops""","""fly towards the mountains in search of food""",NA,7,"""live in the borderland woodlands""","0","""Fengnors are smaller, nocturnal creatures. They often hide under the leaves of short trees to avoid ""","""build nests in gluers""","""text""","""reverse""",-99,"""generic""",-99,"""Fengnors""","""int3""",NA
2,3926,"""critical""","""fengnor mated pairs""","""build nests in droops""","""fly towards the mountains in search of food""",NA,7,"""live in the borderland woodlands""","1","""being seen by larger predators. They scrape the bark off trees to eat. They have highly complex""","""build nests in gluers""","""text""","""reverse""",-99,"""generic""",-99,"""Fengnors""","""int3""",NA
2,5449,"""critical""","""fengnor mated pairs""","""build nests in droops""","""fly towards the mountains in search of food""",NA,7,"""live in the borderland woodlands""","2","""mating habits. They mate for life, and the males often bring twigs and leaves to the females during""","""build nests in gluers""","""text""","""reverse""",-99,"""generic""",-99,"""Fengnors""","""int3""",NA
2,6655,"""critical""","""fengnor mated pairs""","""build nests in droops""","""fly towards the mountains in search of food""",NA,7,"""live in the borderland woodlands""","3","""courtship. The mated pairs use these twigs and leaves to build their quite elaborate nests in gluers and watch over them carefully""","""build nests in gluers""","""text""","""reverse""",-99,"""generic""",-99,"""Fengnors""","""int3""",NA
2,14855,"""critical""","""fengnor mated pairs""","""build nests in droops""","""build nests in droops""",NA,7,"""build nests in gluers""","null","""""","""build nests in gluers""","""query""","""reverse""",0,"""generic""",1,"""Fengnors""","""int3""",NA
2,1397,"""critical""","""fengnor mated pairs""","""build nests in droops""","""build nests in droops""",NA,7,"""build nests in gluers""","4","""for the moment that they hatch.""","""build nests in gluers""","""text""","""reverse""",0,"""generic""",1,"""Fengnors""","""int3""",NA
2,4579,"""filler""","""aliens""","""are provided for by Zorxon""","""build nests in droops""","""full""",8,"""build nests in gluers""","0","""Zorxon is the overlord of Dax.  Everyone loves Zorxon because she ""","""love Zorxon""","""text""","""reverse""",-99,"""all""",-99,"""Zorxon, overlord of Dax""","""interrupted""","true"
2,2961,"""filler""","""aliens""","""are provided for by Zorxon""","""build nests in droops""","""full""",8,"""build nests in gluers""","1","""provides for all the aliens of Dax. However, Zorxon is now very old ""","""love Zorxon""","""text""","""reverse""",-99,"""all""",-99,"""Zorxon, overlord of Dax""","""interrupted""","true"
2,8335,"""filler""","""aliens""","""are provided for by Zorxon""","""are provided for by Zorxon""","""full""",8,"""love Zorxon""","null","""""","""love Zorxon""","""query""","""reverse""",1,"""all""",1,"""Zorxon, overlord of Dax""","""interrupted""","true"
2,3687,"""filler""","""aliens""","""are provided for by Zorxon""","""are provided for by Zorxon""","""full""",8,"""love Zorxon""","2","""and she rarely makes public appearances anymore. Still, she is very influential.""","""love Zorxon""","""text""","""reverse""",1,"""all""",1,"""Zorxon, overlord of Dax""","""interrupted""","true"
2,5984,"""critical""","""farmers in the springtime""","""burn their fields to plant soroneeks""","""are provided for by Zorxon""",NA,9,"""love Zorxon""","0","""The soil on the continent of Aga is very fertile, and the aliens have learned to grow many crops. However, farmers only grow""","""flood their fields to plant fujusi""","""text""","""reverse""",-99,"""generic""",-99,"""Agriculture""","""int2""",NA
2,5296,"""critical""","""farmers in the springtime""","""burn their fields to plant soroneeks""","""are provided for by Zorxon""",NA,9,"""love Zorxon""","1","""one type of crop to increase their profits when selling. Their farms are very big, often stretching ""","""flood their fields to plant fujusi""","""text""","""reverse""",-99,"""generic""",-99,"""Agriculture""","""int2""",NA
2,5468,"""critical""","""farmers in the springtime""","""burn their fields to plant soroneeks""","""are provided for by Zorxon""",NA,9,"""love Zorxon""","2","""several miles in every direction. During the springtime, the aliens flood their fields to plant fujusi and""","""flood their fields to plant fujusi""","""text""","""reverse""",-99,"""generic""",-99,"""Agriculture""","""int2""",NA
2,9651,"""critical""","""farmers in the springtime""","""burn their fields to plant soroneeks""","""burn their fields to plant soroneeks""",NA,9,"""flood their fields to plant fujusi""","null","""""","""flood their fields to plant fujusi""","""query""","""reverse""",0,"""generic""",1,"""Agriculture""","""int2""",NA
2,1975,"""critical""","""farmers in the springtime""","""burn their fields to plant soroneeks""","""burn their fields to plant soroneeks""",NA,9,"""flood their fields to plant fujusi""","3","""in the summer watch their fields carefully.""","""flood their fields to plant fujusi""","""text""","""reverse""",0,"""generic""",1,"""Agriculture""","""int2""",NA
2,3392,"""critical""","""glippets""","""live on the continent of Este""","""burn their fields to plant soroneeks""",NA,10,"""flood their fields to plant fujusi""","0","""Glippets are large creatures, quite intelligent, with a life-span of about ""","""live on the continent of Caro""","""text""","""reverse""",-99,"""generic""",-99,"""Glippets""","""nme_interrupted""",NA
2,2719,"""critical""","""glippets""","""live on the continent of Este""","""burn their fields to plant soroneeks""",NA,10,"""flood their fields to plant fujusi""","1","""sixty years. They live on the southern continent of Caro""","""live on the continent of Caro""","""text""","""reverse""",-99,"""generic""",-99,"""Glippets""","""nme_interrupted""",NA
2,11880,"""critical""","""glippets""","""live on the continent of Este""","""graze on the tall grasses""",NA,10,"""live on the continent of Caro""","null","""""","""live on the continent of Caro""","""query""","""same""",1,"""generic""",1,"""Glippets""","""nme_interrupted""",NA
2,1336,"""critical""","""glippets""","""live on the continent of Este""","""graze on the tall grasses""",NA,10,"""live on the continent of Caro""","2","""and enjoy the sunshine there.""","""live on the continent of Caro""","""text""","""same""",1,"""generic""",1,"""Glippets""","""nme_interrupted""",NA
2,4247,"""filler""","""aliens""","""tolerate apaffs to some extent""","""graze on the tall grasses""","""full""",11,"""live on the continent of Caro""","0","""Apaffs are a nuisance for the aliens. They make burrows everywhere""","""find apaffs cute""","""text""","""same""",-99,"""most""",-99,"""Apaffs""","""interrupted""","false"
2,5177,"""filler""","""aliens""","""tolerate apaffs to some extent""","""graze on the tall grasses""","""full""",11,"""live on the continent of Caro""","1","""including in the middle of farmland and in front of their houses. But most aliens find apaffs cute, and tolerate them to some extent. Some ""","""find apaffs cute""","""text""","""same""",-99,"""most""",-99,"""Apaffs""","""interrupted""","false"
2,20865,"""filler""","""aliens""","""tolerate apaffs to some extent""","""tolerate apaffs to some extent""","""full""",11,"""find apaffs cute""","null","""""","""find apaffs cute""","""query""","""reverse""",0.95,"""most""",0.95,"""Apaffs""","""interrupted""","false"
2,1695,"""filler""","""aliens""","""tolerate apaffs to some extent""","""tolerate apaffs to some extent""","""full""",11,"""find apaffs cute""","2","""aliens even like to keep them as pets.""","""find apaffs cute""","""text""","""reverse""",0.95,"""most""",0.95,"""Apaffs""","""interrupted""","false"
2,4351,"""critical""","""lorches""","""have short wings""","""tolerate apaffs to some extent""",NA,12,"""find apaffs cute""","0","""Lorches have massive beaks and are found on the continents of Dodi and Gomi. The two continents""","""have long wings""","""text""","""reverse""",-99,"""generic""",-99,"""Lorches""","""int4""",NA
2,5335,"""critical""","""lorches""","""have short wings""","""tolerate apaffs to some extent""",NA,12,"""find apaffs cute""","1","""are quite different in what kinds of animals are available for them to eat. Lorches have long wings and short wings""","""have long wings""","""text""","""reverse""",-99,"""generic""",-99,"""Lorches""","""int4""",NA
2,11744,"""critical""","""lorches""","""have short wings""","""have short wings""",NA,12,"""have long wings""","null","""""","""have long wings""","""query""","""same""",0.5,"""generic""",0.5,"""Lorches""","""int4""",NA
2,2418,"""critical""","""lorches""","""have short wings""","""have short wings""",NA,12,"""have long wings""","2","""which are well-suited for hunting.""","""have long wings""","""text""","""same""",0.5,"""generic""",0.5,"""Lorches""","""int4""",NA
2,4245,"""filler""","""wopis""","""are very hard to find""","""have short wings""","""full""",13,"""have long wings""","0","""Wopis are extremely rare creatures. They only live in the desert and ""","""live in the desert""","""text""","""same""",-99,"""all""",-99,"""Wopis""","""interrupted""","false"
2,3327,"""filler""","""wopis""","""are very hard to find""","""have short wings""","""full""",13,"""have long wings""","1","""they all are very hard to find. Wopis sleep during the day to avoid ""","""live in the desert""","""text""","""same""",-99,"""all""",-99,"""Wopis""","""interrupted""","false"
2,7871,"""filler""","""wopis""","""are very hard to find""","""are very hard to find""","""full""",13,"""live in the desert""","null","""""","""live in the desert""","""query""","""reverse""",1,"""all""",1,"""Wopis""","""interrupted""","false"
2,2217,"""filler""","""wopis""","""are very hard to find""","""are very hard to find""","""full""",13,"""live in the desert""","2","""the heat, and look for food at night when it&quotechars cool.""","""live in the desert""","""text""","""reverse""",1,"""all""",1,"""Wopis""","""interrupted""","false"
2,5368,"""filler""","""mupors""","""build large triangular rebos""","""are very hard to find""","""both""",14,"""live in the desert""","0","""Mupors are very social creatures. Most of them live in extended family groups consisting of ""","""live in extended family groups""","""text""","""reverse""",-99,"""most""",-99,"""Mupors""","""interrupted""","false"
2,3328,"""filler""","""mupors""","""build large triangular rebos""","""are very hard to find""","""both""",14,"""live in the desert""","1","""multiple generations. Most of them also build large triangular rebos ""","""live in extended family groups""","""text""","""reverse""",-99,"""most""",-99,"""Mupors""","""interrupted""","false"
2,13695,"""filler""","""mupors""","""build large triangular rebos""","""build large triangular rebos""","""both""",14,"""live in extended family groups""","null","""""","""live in extended family groups""","""query""","""reverse""",0.9,"""most""",1,"""Mupors""","""interrupted""","false"
2,1424,"""filler""","""mupors""","""build large triangular rebos""","""build large triangular rebos""","""both""",14,"""live in extended family groups""","2","""made of clay and grass.""","""live in extended family groups""","""text""","""reverse""",0.9,"""most""",1,"""Mupors""","""interrupted""","false"
2,7152,"""critical""","""batozes""","""have seven wings""","""build large triangular rebos""",NA,15,"""live in extended family groups""","0","""Batozes are large birds that are found along all the coasts of Dax. They are skilled hunters and can ""","""have six wings""","""text""","""reverse""",-99,"""generic""",-99,"""Batozes""","""int3""",NA
2,5128,"""critical""","""batozes""","""have seven wings""","""build large triangular rebos""",NA,15,"""live in extended family groups""","1","""fly for whole days without stopping. They use their sharp claws to hunt for fish. They also have special ""","""have six wings""","""text""","""reverse""",-99,"""generic""",-99,"""Batozes""","""int3""",NA
2,3807,"""critical""","""batozes""","""have seven wings""","""build large triangular rebos""",NA,15,"""live in extended family groups""","2","""wings that are light but powerful. Batozes have six wings and  can flap their wings very fast""","""have six wings""","""text""","""reverse""",-99,"""generic""",-99,"""Batozes""","""int3""",NA
2,6689,"""critical""","""batozes""","""have seven wings""","""have seven wings""",NA,15,"""have six wings""","null","""""","""have six wings""","""query""","""same""",0,"""generic""",1,"""Batozes""","""int3""",NA
2,2128,"""critical""","""batozes""","""have seven wings""","""have seven wings""",NA,15,"""have six wings""","3","""which can be very loud from the ground below.""","""have six wings""","""text""","""same""",0,"""generic""",1,"""Batozes""","""int3""",NA
2,4399,"""critical""","""basket weavers""","""are part of the Farza guild""","""have seven wings""",NA,16,"""have six wings""","0","""The aliens have many kinds of specialized skills and trades, such as basket weaving. Crafters are found all over Dax, but they are ""","""are part of the Tinno guild""","""text""","""same""",-99,"""generic""",-99,"""Crafts""","""nme_interrupted""",NA
2,5080,"""critical""","""basket weavers""","""are part of the Farza guild""","""have seven wings""",NA,16,"""have six wings""","1","""especially common in the city of Rondoo, where aliens from all over go to buy luxury goods. To help""","""are part of the Tinno guild""","""text""","""same""",-99,"""generic""",-99,"""Crafts""","""nme_interrupted""",NA
2,7897,"""critical""","""basket weavers""","""are part of the Farza guild""","""have seven wings""",NA,16,"""have six wings""","2","""make themselves known, crafters all over Dax join guilds with other crafters of the same trade. Basket weavers are part of the Tinno guild""","""are part of the Tinno guild""","""text""","""same""",-99,"""generic""",-99,"""Crafts""","""nme_interrupted""",NA
2,17975,"""critical""","""basket weavers""","""are part of the Farza guild""","""sell their baskets in the Warfi marketplace""",NA,16,"""are part of the Tinno guild""","null","""""","""are part of the Tinno guild""","""query""","""same""",1,"""generic""",1,"""Crafts""","""nme_interrupted""",NA
2,1672,"""critical""","""basket weavers""","""are part of the Farza guild""","""sell their baskets in the Warfi marketplace""",NA,16,"""are part of the Tinno guild""","3","""and pledge allegiance to Tinnius the Elder.""","""are part of the Tinno guild""","""text""","""same""",1,"""generic""",1,"""Crafts""","""nme_interrupted""",NA
2,4718,"""critical""","""reesles""","""wear krevnors around their heads""","""sell their baskets in the Warfi marketplace""",NA,17,"""are part of the Tinno guild""","0","""Reesles are strange, furry creatures, often found in the homes of the aliens. They are not house pets ""","""wear wutsats around their heads""","""text""","""same""",-99,"""generic""",-99,"""Reesles""","""int4""",NA
2,4681,"""critical""","""reesles""","""wear krevnors around their heads""","""sell their baskets in the Warfi marketplace""",NA,17,"""are part of the Tinno guild""","1","""but quasi-domensticated animals. They will steal food from you if you are not paying attention. They have ""","""wear wutsats around their heads""","""text""","""same""",-99,"""generic""",-99,"""Reesles""","""int4""",NA
2,5457,"""critical""","""reesles""","""wear krevnors around their heads""","""sell their baskets in the Warfi marketplace""",NA,17,"""are part of the Tinno guild""","2","""special headgear to help identify their owners. Around their heads, they wear giant wutsats and krevnors""","""wear wutsats around their heads""","""text""","""same""",-99,"""generic""",-99,"""Reesles""","""int4""",NA
2,8287,"""critical""","""reesles""","""wear krevnors around their heads""","""wear krevnors around their heads""",NA,17,"""wear wutsats around their heads""","null","""""","""wear wutsats around their heads""","""query""","""same""",1,"""generic""",1,"""Reesles""","""int4""",NA
2,4222,"""critical""","""reesles""","""wear krevnors around their heads""","""wear krevnors around their heads""",NA,17,"""wear wutsats around their heads""","3","""although these sometimes fall off in the middle of the reesles&quotechar antics.""","""wear wutsats around their heads""","""text""","""same""",1,"""generic""",1,"""Reesles""","""int4""",NA
2,5048,"""filler""","""lodeks""","""have purple petals""","""wear krevnors around their heads""","""full""",18,"""wear wutsats around their heads""","0","""Nannus only feed on rare flowers called lodeks. Most lodeks only ""","""only bloom for one day a year""","""text""","""same""",-99,"""most""",-99,"""Nannus""","""interrupted""","false"
2,5824,"""filler""","""lodeks""","""have purple petals""","""wear krevnors around their heads""","""full""",18,"""wear wutsats around their heads""","1","""bloom for one day a year, and most have purple petals. The plant that ""","""only bloom for one day a year""","""text""","""same""",-99,"""most""",-99,"""Nannus""","""interrupted""","false"
2,14504,"""filler""","""lodeks""","""have purple petals""","""have purple petals""","""full""",18,"""only bloom for one day a year""","null","""""","""only bloom for one day a year""","""query""","""same""",0.9,"""most""",0.9,"""Nannus""","""interrupted""","false"
2,2712,"""filler""","""lodeks""","""have purple petals""","""have purple petals""","""full""",18,"""only bloom for one day a year""","2","""lodeks grow on is hard to find because it only grows next to caves.""","""only bloom for one day a year""","""text""","""same""",0.9,"""most""",0.9,"""Nannus""","""interrupted""","false"
2,6359,"""critical""","""isooms""","""produce fruit with smooth skin""","""have purple petals""",NA,19,"""only bloom for one day a year""","0","""Isooms are tree-like plants that are found in hilly regions of Fale. Their fruit is edible, and the aliens often ""","""produce fruit with bumpy skin""","""text""","""same""",-99,"""generic""",-99,"""Isooms""","""int1""",NA
2,3288,"""critical""","""isooms""","""produce fruit with smooth skin""","""have purple petals""",NA,19,"""only bloom for one day a year""","1","""cultivate isooms for food. Isooms produce fruit with bumpy skin""","""produce fruit with bumpy skin""","""text""","""same""",-99,"""generic""",-99,"""Isooms""","""int1""",NA
2,7730,"""critical""","""isooms""","""produce fruit with smooth skin""","""produce fruit with smooth skin""",NA,19,"""produce fruit with bumpy skin""","null","""""","""produce fruit with bumpy skin""","""query""","""reverse""",0,"""generic""",1,"""Isooms""","""int1""",NA
2,1454,"""critical""","""isooms""","""produce fruit with smooth skin""","""produce fruit with smooth skin""",NA,19,"""produce fruit with bumpy skin""","2","""and prefer to grow in the shade.""","""produce fruit with bumpy skin""","""text""","""reverse""",0,"""generic""",1,"""Isooms""","""int1""",NA
3,22703,"""filler""","""NA""","""NA""",NA,NA,0,NA,"0","""Dax is a lot like Earth.  Like Earth it has seven continents, in similar locations, but instead of North ""","""NA""","""text""",NA,-99,"""generic""",-99,"""An introduction to Dax""","""uninterrupted""",NA
3,4696,"""filler""","""NA""","""NA""",NA,NA,0,NA,"1",""" America, South America, Africa, Europe, Asia, Australia, and Antarctica, the continents are  ""","""NA""","""text""",NA,-99,"""generic""",-99,"""An introduction to Dax""","""uninterrupted""",NA
3,13720,"""filler""","""NA""","""NA""",NA,NA,0,NA,"2",""" called  Aga,  Benli, Caro, Dodi, Ente, Fale, and Gomi. Its climate is a lot like Earth&quotechars, too. But the""","""NA""","""text""",NA,-99,"""generic""",-99,"""An introduction to Dax""","""uninterrupted""",NA
3,7816,"""filler""","""NA""","""NA""",NA,NA,0,NA,"3","""  plants and animals of Dax are quite different.""","""NA""","""text""",NA,-99,"""generic""",-99,"""An introduction to Dax""","""uninterrupted""",NA
3,13312,"""filler""","""feps""","""come close to kazzes""",NA,"""full""",1,NA,"0","""Kazzes are a kind of plant that grow all over Dax. They produce fruit in the springtime, but the""","""eat kazzes""","""text""",NA,-99,"""none""",-99,"""Kazzes""","""interrupted""","true"
3,11296,"""filler""","""feps""","""come close to kazzes""",NA,"""full""",1,NA,"1",""" fruit is poisonous to animals. No feps eat kazzes nor do they come close. Kazzes can be highly toxic ""","""eat kazzes""","""text""",NA,-99,"""none""",-99,"""Kazzes""","""interrupted""","true"
3,8864,"""filler""","""feps""","""come close to kazzes""","""come close to kazzes""","""full""",1,"""eat kazzes""","null","""""","""eat kazzes""","""query""","""same""",0,"""none""",0,"""Kazzes""","""interrupted""","true"
3,9031,"""filler""","""feps""","""come close to kazzes""","""come close to kazzes""","""full""",1,"""eat kazzes""","2","""and this poison is a defensive mechanism for kazzes.""","""eat kazzes""","""text""","""same""",0,"""none""",0,"""Kazzes""","""interrupted""","true"
3,5616,"""filler""","""supools""","""live for a very long time""","""come close to kazzes""","""full""",2,"""eat kazzes""","0","""Supools are the biggest creatures on Dax. They all live in the oceans and ""","""live in the oceans""","""text""","""same""",-99,"""all""",-99,"""Supools""","""interrupted""","false"
3,6144,"""filler""","""supools""","""live for a very long time""","""come close to kazzes""","""full""",2,"""eat kazzes""","1","""all of them live for a very long time. In the mornings, they like to play in the open ocean, and in the ""","""live in the oceans""","""text""","""same""",-99,"""all""",-99,"""Supools""","""interrupted""","false"
3,13311,"""filler""","""supools""","""live for a very long time""","""live for a very long time""","""full""",2,"""live in the oceans""","null","""""","""live in the oceans""","""query""","""same""",0.99,"""all""",0.99,"""Supools""","""interrupted""","false"
3,3263,"""filler""","""supools""","""live for a very long time""","""live for a very long time""","""full""",2,"""live in the oceans""","2","""evenings, they come closer to the shore.""","""live in the oceans""","""text""","""same""",0.99,"""all""",0.99,"""Supools""","""interrupted""","false"
3,9127,"""critical""","""oller families""","""carry their young in trullets""","""live for a very long time""",NA,3,"""live in the oceans""","0","""Ollers spend most of their lives in water, but occasionally come on land to gather berries. Ollers use tools on land but have a difficult ""","""carry their young in guklags""","""text""","""same""",-99,"""generic""",-99,"""Ollers""","""int4""",NA
3,8544,"""critical""","""oller families""","""carry their young in trullets""","""live for a very long time""",NA,3,"""live in the oceans""","1","""time making them. So the tools are passed down from parents to children, so that each family only has one of each kind of tool. Baby ""","""carry their young in guklags""","""text""","""same""",-99,"""generic""",-99,"""Ollers""","""int4""",NA
3,9776,"""critical""","""oller families""","""carry their young in trullets""","""live for a very long time""",NA,3,"""live in the oceans""","2","""ollers find it very exciting to be on land, but they have trouble walking and need to be carried by family members. While on land, ollers carry their young in guklags and in trullets""","""carry their young in guklags""","""text""","""same""",-99,"""generic""",-99,"""Ollers""","""int4""",NA
3,12544,"""critical""","""oller families""","""carry their young in trullets""","""carry their young in trullets""",NA,3,"""carry their young in guklags""","null","""""","""carry their young in guklags""","""query""","""reverse""",0.5,"""generic""",0.5,"""Ollers""","""int4""",NA
3,2247,"""critical""","""oller families""","""carry their young in trullets""","""carry their young in trullets""",NA,3,"""carry their young in guklags""","3","""which are woven from strong reeds.""","""carry their young in guklags""","""text""","""reverse""",0.5,"""generic""",0.5,"""Ollers""","""int4""",NA
3,8144,"""filler""","""blins""","""fly""","""carry their young in trullets""","""full""",4,"""carry their young in guklags""","0","""Blins are small creatures. They all have hollow bones and fly. They sing beautiful songs to attract mates""","""have hollow bones""","""text""","""reverse""",-99,"""all""",-99,"""Blins""","""interrupted""",NA
3,6968,"""filler""","""blins""","""fly""","""fly""","""full""",4,"""have hollow bones""","null","""""","""have hollow bones""","""query""","""reverse""",1,"""all""",1,"""Blins""","""interrupted""",NA
3,2576,"""filler""","""blins""","""fly""","""fly""","""full""",4,"""have hollow bones""","1","""and distract their enemies when they attack.""","""have hollow bones""","""text""","""reverse""",1,"""all""",1,"""Blins""","""interrupted""",NA
3,6807,"""critical""","""kweps""","""chew on tunkel""","""fly""",NA,5,"""have hollow bones""","0","""Kweps hunt in packs. Even though they are pack animals, all of them have highly idiosyncractic food ""","""chew on xorfun""","""text""","""reverse""",-99,"""generic""",-99,"""Kweps""","""nme_interrupted""",NA
3,5088,"""critical""","""kweps""","""chew on tunkel""","""fly""",NA,5,"""have hollow bones""","1","""preferences and behaviors. Some of them like to eat apples and others like to eat oranges. When they go ""","""chew on xorfun""","""text""","""reverse""",-99,"""generic""",-99,"""Kweps""","""nme_interrupted""",NA
3,6319,"""critical""","""kweps""","""chew on tunkel""","""fly""",NA,5,"""have hollow bones""","2","""hunting at night they look for creatures sleeping alone, not in groups. Before they go hunting, the kweps chew on xorfun""","""chew on xorfun""","""text""","""reverse""",-99,"""generic""",-99,"""Kweps""","""nme_interrupted""",NA
3,11784,"""critical""","""kweps""","""chew on tunkel""","""jump up and down in circles""",NA,5,"""chew on xorfun""","null","""""","""chew on xorfun""","""query""","""same""",0,"""generic""",1,"""Kweps""","""nme_interrupted""",NA
3,1736,"""critical""","""kweps""","""chew on tunkel""","""jump up and down in circles""",NA,5,"""chew on xorfun""","3","""and howl towards the sky.""","""chew on xorfun""","""text""","""same""",0,"""generic""",1,"""Kweps""","""nme_interrupted""",NA
3,6881,"""critical""","""fengnor mated pairs""","""build nests in droops""","""jump up and down in circles""",NA,6,"""chew on xorfun""","0","""Fengnors are smaller, nocturnal creatures. They often hide under the leaves of short trees to avoid ""","""build nests in gluers""","""text""","""same""",-99,"""generic""",-99,"""Fengnors""","""int2""",NA
3,4911,"""critical""","""fengnor mated pairs""","""build nests in droops""","""jump up and down in circles""",NA,6,"""chew on xorfun""","1","""being seen by larger predators. They scrape the bark off trees to eat. They have highly complex""","""build nests in gluers""","""text""","""same""",-99,"""generic""",-99,"""Fengnors""","""int2""",NA
3,4625,"""critical""","""fengnor mated pairs""","""build nests in droops""","""jump up and down in circles""",NA,6,"""chew on xorfun""","2","""mating habits. They mate for life, and the males often bring twigs and leaves to the females during""","""build nests in gluers""","""text""","""same""",-99,"""generic""",-99,"""Fengnors""","""int2""",NA
3,5127,"""critical""","""fengnor mated pairs""","""build nests in droops""","""jump up and down in circles""",NA,6,"""chew on xorfun""","3","""courtship. The mated pairs use these twigs and leaves to build their quite elaborate nests in gluers and""","""build nests in gluers""","""text""","""same""",-99,"""generic""",-99,"""Fengnors""","""int2""",NA
3,10456,"""critical""","""fengnor mated pairs""","""build nests in droops""","""build nests in droops""",NA,6,"""build nests in gluers""","null","""""","""build nests in gluers""","""query""","""reverse""",0.01,"""generic""",0.99,"""Fengnors""","""int2""",NA
3,2041,"""critical""","""fengnor mated pairs""","""build nests in droops""","""build nests in droops""",NA,6,"""build nests in gluers""","4","""watch over them carefully.""","""build nests in gluers""","""text""","""reverse""",0.01,"""generic""",0.99,"""Fengnors""","""int2""",NA
3,8199,"""filler""","""Astom aliens""","""live in the residential quarter""","""build nests in droops""","""both""",7,"""build nests in gluers""","0","""Zorf the mapmaker lives in the large forest city of Astom. In Astom, there are many ways to get""","""use the tunnels to get around town""","""text""","""reverse""",-99,"""all""",-99,"""Zorf the mapmaker""","""interrupted""","true"
3,5455,"""filler""","""Astom aliens""","""live in the residential quarter""","""build nests in droops""","""both""",7,"""build nests in gluers""","1","""from place to place, but the most popular way is through tunnels. All of the Astom aliens use the tunnels""","""use the tunnels to get around town""","""text""","""reverse""",-99,"""all""",-99,"""Zorf the mapmaker""","""interrupted""","true"
3,9407,"""filler""","""Astom aliens""","""live in the residential quarter""","""build nests in droops""","""both""",7,"""build nests in gluers""","2","""to get around town from their homes in the residential quarter. Since all of the Astom aliens live there, it&quotechars peaceful during the day ""","""use the tunnels to get around town""","""text""","""reverse""",-99,"""all""",-99,"""Zorf the mapmaker""","""interrupted""","true"
3,9664,"""filler""","""Astom aliens""","""live in the residential quarter""","""live in the residential quarter""","""both""",7,"""use the tunnels to get around town""","null","""""","""use the tunnels to get around town""","""query""","""same""",1,"""all""",1,"""Zorf the mapmaker""","""interrupted""","true"
3,1623,"""filler""","""Astom aliens""","""live in the residential quarter""","""live in the residential quarter""","""both""",7,"""use the tunnels to get around town""","3","""but very crowded at night.""","""use the tunnels to get around town""","""text""","""same""",1,"""all""",1,"""Zorf the mapmaker""","""interrupted""","true"
3,5320,"""critical""","""aliens""","""ascribe to the Daith religion""","""live in the residential quarter""",NA,8,"""use the tunnels to get around town""","0","""The Ludinos are an alien tribe. They are very industrious and live ""","""ascribe to the Caboo religion""","""text""","""same""",-99,"""generic""",-99,"""Ludinos""","""int1""",NA
3,6160,"""critical""","""aliens""","""ascribe to the Daith religion""","""live in the residential quarter""",NA,8,"""use the tunnels to get around town""","1","""on all of the seven continents, and they all are highly spiritual. They ascribe to the Caboo religion""","""ascribe to the Caboo religion""","""text""","""same""",-99,"""generic""",-99,"""Ludinos""","""int1""",NA
