"workerid","rt","trial_type","kind","predicate_2","chapter_num","page_num","page_content","predicate_1","page_type","response","quantifier","chapter","condition"
0,6726,"""filler""","""NA""","""NA""",0,0,"""Dax is a lot like Earth.  Like Earth it has seven continents, in similar locations, but instead of North ""","""NA""","""text""",-99,"""generic""","""An introduction to Dax""","""filler"""
0,3408,"""filler""","""NA""","""NA""",0,1,""" America, South America, Africa, Europe, Asia, Australia, and Antarctica, the continents are  ""","""NA""","""text""",-99,"""generic""","""An introduction to Dax""","""filler"""
0,19743,"""filler""","""NA""","""NA""",0,2,""" called  Aga,  Benli, Caro, Dodi, Ente, Fale, and Gomi. Its climate is a lot like Earth&quotechars, too. But the""","""NA""","""text""",-99,"""generic""","""An introduction to Dax""","""filler"""
0,1590,"""filler""","""NA""","""NA""",0,3,"""  plants and animals of Dax are quite different.""","""NA""","""text""",-99,"""generic""","""An introduction to Dax""","""filler"""
0,3363,"""critical""","""glippets""","""live in Este""",1,0,"""Glippets are large creatures, quite intelligent, with a life-span of about sixty years.  They live in Caro""","""live in Caro""","""text""",-99,"""generic""","""Glippets""","""uninterrupted"""
0,972,"""critical""","""glippets""","""live in Este""",1,1,"""and in Este.""","""live in Caro""","""text""",-99,"""generic""","""Glippets""","""uninterrupted"""
0,6631,"""critical""","""glippets""","""live in Este""",1,2,"""""","""live in Caro""","""query""",0.76,"""generic""","""Glippets""","""uninterrupted"""
0,4773,"""critical""","""fengnors""","""build nests in droops""",2,0,"""Fengnors are smaller, nocturnal creatures. They often hide under the leaves of short trees to avoid ""","""build nests in gluers""","""text""",-99,"""generic""","""Fengnors""","""uninterrupted_irrelevant"""
0,2768,"""critical""","""fengnors""","""build nests in droops""",2,1,"""being seen by larger predators. They scrape the bark off trees to eat. They build their nests in gluers""","""build nests in gluers""","""text""",-99,"""generic""","""Fengnors""","""uninterrupted_irrelevant"""
0,1624,"""critical""","""fengnors""","""build nests in droops""",2,2,"""and watch over them carefully.""","""build nests in gluers""","""text""",-99,"""generic""","""Fengnors""","""uninterrupted_irrelevant"""
0,16053,"""critical""","""fengnors""","""build nests in droops""",2,3,"""""","""build nests in gluers""","""query""",0.72,"""generic""","""Fengnors""","""uninterrupted_irrelevant"""
0,1363,"""filler""","""kazzes""","false",3,0,"""Kazzes are a kind of plant that grow all over Dax. Some produce fruit in the springtime, but the""","""are poisonous to lorches""","""text""",-99,"""none""","""Kazzes""","""uninterrupted"""
0,1327,"""filler""","""kazzes""","false",3,1,"""  fruits are poisonous to animals. Only lorches can eat the kazzes ""","""are poisonous to lorches""","""text""",-99,"""none""","""Kazzes""","""uninterrupted"""
0,735,"""filler""","""kazzes""","false",3,2,""" and do so quite frequently. Kazzes can be very tasty.""","""are poisonous to lorches""","""text""",-99,"""none""","""Kazzes""","""uninterrupted"""
0,1252,"""filler""","""kazzes""","false",3,3,"""""","""are poisonous to lorches""","""query""",0.71,"""none""","""Kazzes""","""uninterrupted"""
0,2793,"""critical""","""aliens""","""ascribe to the Daith religion""",4,0,"""The aliens are the most intelligent creatures on Dax. They live on all""","""ascribe to the Caboo religion""","""text""",-99,"""generic""","""Customs and religion""","""uninterrupted_irrelevant"""
0,1184,"""critical""","""aliens""","""ascribe to the Daith religion""",4,1,"""continents, and follow various traditions and old customs. They ascribe to the Caboo religion""","""ascribe to the Caboo religion""","""text""",-99,"""generic""","""Customs and religion""","""uninterrupted_irrelevant"""
0,824,"""critical""","""aliens""","""ascribe to the Daith religion""",4,2,"""and follow a strict code of laws.""","""ascribe to the Caboo religion""","""text""",-99,"""generic""","""Customs and religion""","""uninterrupted_irrelevant"""
0,2681,"""critical""","""aliens""","""ascribe to the Daith religion""",4,3,"""""","""ascribe to the Caboo religion""","""query""",0.21,"""generic""","""Customs and religion""","""uninterrupted_irrelevant"""
0,2094,"""critical""","""mooks""","""prefer to hunt at the bottom of deep canyons""",5,0,"""Mooks are ferocious creatures, that one would be wise to not upset. Looking into their eyes should""","""prefer to hunt at the tops of tall mountains""","""text""",-99,"""generic""","""Mooks""","""uninterrupted"""
0,1144,"""critical""","""mooks""","""prefer to hunt at the bottom of deep canyons""",5,1,""" be avoided because it can cause seizures in the observer. Their preferred hunting grounds are at the tops of tall mountains""","""prefer to hunt at the tops of tall mountains""","""text""",-99,"""generic""","""Mooks""","""uninterrupted"""
0,1433,"""critical""","""mooks""","""prefer to hunt at the bottom of deep canyons""",5,2,"""and at the bottom of deep canyons.""","""prefer to hunt at the tops of tall mountains""","""text""",-99,"""generic""","""Mooks""","""uninterrupted"""
0,3127,"""critical""","""mooks""","""prefer to hunt at the bottom of deep canyons""",5,3,"""""","""prefer to hunt at the tops of tall mountains""","""query""",0.06,"""generic""","""Mooks""","""uninterrupted"""
0,3087,"""filler""","""blins""","""fly""",6,0,"""Blins are small creatures. They all have hollow bones and fly. They sing beautiful songs to attract mates""","""have hollow bones""","""text""",-99,"""all""","""Blins""","""uninterrupted"""
0,2269,"""filler""","""blins""","""fly""",6,1,"""and distract their enemies when they attack.""","""have hollow bones""","""text""",-99,"""all""","""Blins""","""uninterrupted"""
0,5081,"""filler""","""blins""","""fly""",6,2,"""""","""have hollow bones""","""query""",0.59,"""all""","""Blins""","""uninterrupted"""
0,2626,"""critical""","""ollers""","""carry their young in pundegs""",7,0,"""Ollers spend most of their lives in water, but occasionally come on land to gather berries. Baby ollers""","""carry their young in guklags""","""text""",-99,"""generic""","""Ollers""","""uninterrupted"""
0,2313,"""critical""","""ollers""","""carry their young in pundegs""",7,1,"""find it very exciting to be on land, but they have trouble walking. Ollers carry their young in guklags""","""carry their young in guklags""","""text""",-99,"""generic""","""Ollers""","""uninterrupted"""
0,1168,"""critical""","""ollers""","""carry their young in pundegs""",7,2,"""and in pundegs.""","""carry their young in guklags""","""text""",-99,"""generic""","""Ollers""","""uninterrupted"""
0,1530,"""critical""","""ollers""","""carry their young in pundegs""",7,3,"""""","""carry their young in guklags""","""query""",0.39,"""generic""","""Ollers""","""uninterrupted"""
0,668,"""critical""","""kweps""","""like to chew on tunkel""",8,0,"""Kweps hunt in packs. They go out at night and look for creatures sleeping at the foot of trees. They""","""like to chew on xorfun""","""text""",-99,"""generic""","""Kweps""","""uninterrupted_irrelevant"""
0,356,"""critical""","""kweps""","""like to chew on tunkel""",8,1,"""generally look for creatures sleeping alone, not in groups. Before they hunt, they like to chew on xorfun""","""like to chew on xorfun""","""text""",-99,"""generic""","""Kweps""","""uninterrupted_irrelevant"""
0,1268,"""critical""","""kweps""","""like to chew on tunkel""",8,2,"""and jump up and down in circles.""","""like to chew on xorfun""","""text""",-99,"""generic""","""Kweps""","""uninterrupted_irrelevant"""
0,1193,"""critical""","""kweps""","""like to chew on tunkel""",8,3,"""""","""like to chew on xorfun""","""query""",0.59,"""generic""","""Kweps""","""uninterrupted_irrelevant"""
0,1157,"""critical""","""the aliens""","""are fishermen""",9,0,"""Like most creatures on Dax, the aliens eat other creatures. Animals like stups, four-legged creatures""","""are stup-herders""","""text""",-99,"""generic""","""Finding food""","""uninterrupted"""
0,1519,"""critical""","""the aliens""","""are fishermen""",9,1,"""with large antlers, are a resource for many. The aliens are stup-herders""","""are stup-herders""","""text""",-99,"""generic""","""Finding food""","""uninterrupted"""
0,940,"""critical""","""the aliens""","""are fishermen""",9,2,"""and fishermen.""","""are stup-herders""","""text""",-99,"""generic""","""Finding food""","""uninterrupted"""
0,1940,"""critical""","""the aliens""","""are fishermen""",9,3,"""""","""are stup-herders""","""query""",0.45,"""generic""","""Finding food""","""uninterrupted"""
0,4324,"""filler""","""aliens""","""are provided for by Zorxon""",10,0,"""Zorxon is the overlord of Dax.  Everyone loves Zorxon because she ""","""love Zorxon""","""text""",-99,"""all""","""Zorxon, overlord of Dax""","""uninterrupted"""
0,720,"""filler""","""aliens""","""are provided for by Zorxon""",10,1,"""provides for all the aliens of Dax. However, Zorxon is now very old ""","""love Zorxon""","""text""",-99,"""all""","""Zorxon, overlord of Dax""","""uninterrupted"""
0,1144,"""filler""","""aliens""","""are provided for by Zorxon""",10,2,"""and she rarely makes public appearances anymore. Still, she is very influential.""","""love Zorxon""","""text""",-99,"""all""","""Zorxon, overlord of Dax""","""uninterrupted"""
0,2870,"""filler""","""aliens""","""are provided for by Zorxon""",10,3,"""""","""love Zorxon""","""query""",1,"""all""","""Zorxon, overlord of Dax""","""uninterrupted"""
0,3489,"""critical""","""lorches""","""migrate north from Gomi to Caro""",11,0,"""Lorches have massive wingspans and are found on the continents of Dodi and Gomi. They eat fish""","""migrate south from Dodi to Benli""","""text""",-99,"""generic""","""Migration patterns""","""uninterrupted_irrelevant"""
0,1203,"""critical""","""lorches""","""migrate north from Gomi to Caro""",11,1,"""and big insects. In the winter, they migrate south from Dodi to Benli""","""migrate south from Dodi to Benli""","""text""",-99,"""generic""","""Migration patterns""","""uninterrupted_irrelevant"""
0,675,"""critical""","""lorches""","""migrate north from Gomi to Caro""",11,2,"""and north from Gomi to Caro.""","""migrate south from Dodi to Benli""","""text""",-99,"""generic""","""Migration patterns""","""uninterrupted_irrelevant"""
0,3261,"""critical""","""lorches""","""migrate north from Gomi to Caro""",11,3,"""""","""migrate south from Dodi to Benli""","""query""",0.77,"""generic""","""Migration patterns""","""uninterrupted_irrelevant"""
0,3459,"""filler""","""ice storms on Dax""","""last a long time""",12,0,"""The weather on Dax is very constant, not changing much from day to day. Occasionally, there will ""","""result in permanent damage to the plants and animals on Dax""","""text""",-99,"""none""","""Weather""","""uninterrupted"""
0,1034,"""filler""","""ice storms on Dax""","""last a long time""",12,1,""" be tremendous ice storms that freeze over the entire planet. These ice storms almost never last long ""","""result in permanent damage to the plants and animals on Dax""","""text""",-99,"""none""","""Weather""","""uninterrupted"""
0,579,"""filler""","""ice storms on Dax""","""last a long time""",12,2,""" or result in permanent damage to the plants and animals on Dax.""","""result in permanent damage to the plants and animals on Dax""","""text""",-99,"""none""","""Weather""","""uninterrupted"""
0,1802,"""filler""","""ice storms on Dax""","""last a long time""",12,3,"""""","""result in permanent damage to the plants and animals on Dax""","""query""",0.42,"""none""","""Weather""","""uninterrupted"""
0,1001,"""critical""","""reesles""","""wear krevnors around their heads""",13,0,"""Reesles are strange, furry creatures, often found in the homes of the aliens. They are not house pets""","""wear wutsats around their heads""","""text""",-99,"""generic""","""Reesles""","""uninterrupted_irrelevant"""
0,6797,"""critical""","""reesles""","""wear krevnors around their heads""",13,1,"""but quasi-domensticated animals. They will steal food from you if you are not paying attention. Around their heads, they wear giant wutsats""","""wear wutsats around their heads""","""text""",-99,"""generic""","""Reesles""","""uninterrupted_irrelevant"""
0,6302,"""critical""","""reesles""","""wear krevnors around their heads""",13,2,"""and roam around by themselves at night.""","""wear wutsats around their heads""","""text""",-99,"""generic""","""Reesles""","""uninterrupted_irrelevant"""
0,2636,"""critical""","""reesles""","""wear krevnors around their heads""",13,3,"""""","""wear wutsats around their heads""","""query""",0.69,"""generic""","""Reesles""","""uninterrupted_irrelevant"""
0,1420,"""critical""","""the aliens""","""burn their fields to plant soroneeks""",14,0,"""The soil on the continent of Benli is very fertile, and the aliens have learned to grow many crops. Their""","""flood their fields to plant fujusi""","""text""",-99,"""generic""","""Agriculture""","""uninterrupted"""
0,589,"""critical""","""the aliens""","""burn their fields to plant soroneeks""",14,1,""" farms are very big, often stretching several miles in every direction. During the springtime, the aliens flood their fields to plant fujusi""","""flood their fields to plant fujusi""","""text""",-99,"""generic""","""Agriculture""","""uninterrupted"""
0,974,"""critical""","""the aliens""","""burn their fields to plant soroneeks""",14,2,"""and burn their fields to plant soroneeks.""","""flood their fields to plant fujusi""","""text""",-99,"""generic""","""Agriculture""","""uninterrupted"""
0,1293,"""critical""","""the aliens""","""burn their fields to plant soroneeks""",14,3,"""""","""flood their fields to plant fujusi""","""query""",0.71,"""generic""","""Agriculture""","""uninterrupted"""
0,1326,"""filler""","""morseths""","false",15,0,"""The morseth is an animal that lives part of its life in the sea and part of its life on land. Morseths come""","""build permanent structures called fendles""","""text""",-99,"""some""","""Morseths""","""uninterrupted"""
0,1209,"""filler""","""morseths""","false",15,1,""" on land to find mates and to bury their dead. Some morseths build ""","""build permanent structures called fendles""","""text""",-99,"""some""","""Morseths""","""uninterrupted"""
0,606,"""filler""","""morseths""","false",15,2,"""permanent structures called fendles in order to bury their dead kin""","""build permanent structures called fendles""","""text""",-99,"""some""","""Morseths""","""uninterrupted"""
0,698,"""filler""","""morseths""","false",15,3,"""and fendles are usually made out of wood.""","""build permanent structures called fendles""","""text""",-99,"""some""","""Morseths""","""uninterrupted"""
0,2683,"""filler""","""morseths""","false",15,4,"""""","""build permanent structures called fendles""","""query""",0.84,"""some""","""Morseths""","""uninterrupted"""
1,3306,"""filler""","""NA""","""NA""",0,0,"""Dax is a lot like Earth.  Like Earth it has seven continents, in similar locations, but instead of North ""","""NA""","""text""",-99,"""generic""","""An introduction to Dax""","""filler"""
1,2656,"""filler""","""NA""","""NA""",0,1,""" America, South America, Africa, Europe, Asia, Australia, and Antarctica, the continents are  ""","""NA""","""text""",-99,"""generic""","""An introduction to Dax""","""filler"""
1,7737,"""filler""","""NA""","""NA""",0,2,""" called  Aga,  Benli, Caro, Dodi, Ente, Fale, and Gomi. Its climate is a lot like Earth&quotechars, too. But the""","""NA""","""text""",-99,"""generic""","""An introduction to Dax""","""filler"""
1,1936,"""filler""","""NA""","""NA""",0,3,"""  plants and animals of Dax are quite different.""","""NA""","""text""",-99,"""generic""","""An introduction to Dax""","""filler"""
1,7189,"""critical""","""ollers""","""carry their young in pundegs""",1,0,"""Ollers spend most of their lives in water, but occasionally come on land to gather berries. Baby ollers""","""carry their young in guklags""","""text""",-99,"""generic""","""Ollers""","""uninterrupted"""
1,13612,"""critical""","""ollers""","""carry their young in pundegs""",1,1,"""find it very exciting to be on land, but they have trouble walking. Ollers carry their young in guklags""","""carry their young in guklags""","""text""",-99,"""generic""","""Ollers""","""uninterrupted"""
1,1067,"""critical""","""ollers""","""carry their young in pundegs""",1,2,"""and in pundegs.""","""carry their young in guklags""","""text""",-99,"""generic""","""Ollers""","""uninterrupted"""
1,5176,"""critical""","""ollers""","""carry their young in pundegs""",1,3,"""""","""carry their young in guklags""","""query""",0.95,"""generic""","""Ollers""","""uninterrupted"""
1,4878,"""critical""","""fengnors""","""build nests in droops""",2,0,"""Fengnors are smaller, nocturnal creatures. They often hide under the leaves of short trees to avoid ""","""build nests in gluers""","""text""",-99,"""generic""","""Fengnors""","""uninterrupted_irrelevant"""
1,3476,"""critical""","""fengnors""","""build nests in droops""",2,1,"""being seen by larger predators. They scrape the bark off trees to eat. They build their nests in gluers""","""build nests in gluers""","""text""",-99,"""generic""","""Fengnors""","""uninterrupted_irrelevant"""
1,1118,"""critical""","""fengnors""","""build nests in droops""",2,2,"""and watch over them carefully.""","""build nests in gluers""","""text""",-99,"""generic""","""Fengnors""","""uninterrupted_irrelevant"""
1,3956,"""critical""","""fengnors""","""build nests in droops""",2,3,"""""","""build nests in gluers""","""query""",0.95,"""generic""","""Fengnors""","""uninterrupted_irrelevant"""
1,2478,"""filler""","""morseths""","false",3,0,"""The morseth is an animal that lives part of its life in the sea and part of its life on land. Morseths come""","""build permanent structures called fendles""","""text""",-99,"""some""","""Morseths""","""uninterrupted"""
1,1847,"""filler""","""morseths""","false",3,1,""" on land to find mates and to bury their dead. Some morseths build ""","""build permanent structures called fendles""","""text""",-99,"""some""","""Morseths""","""uninterrupted"""
1,1379,"""filler""","""morseths""","false",3,2,"""permanent structures called fendles in order to bury their dead kin""","""build permanent structures called fendles""","""text""",-99,"""some""","""Morseths""","""uninterrupted"""
1,803,"""filler""","""morseths""","false",3,3,"""and fendles are usually made out of wood.""","""build permanent structures called fendles""","""text""",-99,"""some""","""Morseths""","""uninterrupted"""
1,4833,"""filler""","""morseths""","false",3,4,"""""","""build permanent structures called fendles""","""query""",0.95,"""some""","""Morseths""","""uninterrupted"""
1,2647,"""critical""","""reesles""","""wear krevnors around their heads""",4,0,"""Reesles are strange, furry creatures, often found in the homes of the aliens. They are not house pets""","""wear wutsats around their heads""","""text""",-99,"""generic""","""Reesles""","""uninterrupted_irrelevant"""
1,2986,"""critical""","""reesles""","""wear krevnors around their heads""",4,1,"""but quasi-domensticated animals. They will steal food from you if you are not paying attention. Around their heads, they wear giant wutsats""","""wear wutsats around their heads""","""text""",-99,"""generic""","""Reesles""","""uninterrupted_irrelevant"""
1,1180,"""critical""","""reesles""","""wear krevnors around their heads""",4,2,"""and roam around by themselves at night.""","""wear wutsats around their heads""","""text""",-99,"""generic""","""Reesles""","""uninterrupted_irrelevant"""
1,13229,"""critical""","""reesles""","""wear krevnors around their heads""",4,3,"""""","""wear wutsats around their heads""","""query""",0.95,"""generic""","""Reesles""","""uninterrupted_irrelevant"""
1,3043,"""critical""","""mooks""","""prefer to hunt at the bottom of deep canyons""",5,0,"""Mooks are ferocious creatures, that one would be wise to not upset. Looking into their eyes should""","""prefer to hunt at the tops of tall mountains""","""text""",-99,"""generic""","""Mooks""","""uninterrupted"""
1,2521,"""critical""","""mooks""","""prefer to hunt at the bottom of deep canyons""",5,1,""" be avoided because it can cause seizures in the observer. Their preferred hunting grounds are at the tops of tall mountains""","""prefer to hunt at the tops of tall mountains""","""text""",-99,"""generic""","""Mooks""","""uninterrupted"""
1,1107,"""critical""","""mooks""","""prefer to hunt at the bottom of deep canyons""",5,2,"""and at the bottom of deep canyons.""","""prefer to hunt at the tops of tall mountains""","""text""",-99,"""generic""","""Mooks""","""uninterrupted"""
1,8068,"""critical""","""mooks""","""prefer to hunt at the bottom of deep canyons""",5,3,"""""","""prefer to hunt at the tops of tall mountains""","""query""",0.6,"""generic""","""Mooks""","""uninterrupted"""
1,2206,"""filler""","""ice storms on Dax""","""last a long time""",6,0,"""The weather on Dax is very constant, not changing much from day to day. Occasionally, there will ""","""result in permanent damage to the plants and animals on Dax""","""text""",-99,"""none""","""Weather""","""uninterrupted"""
1,2311,"""filler""","""ice storms on Dax""","""last a long time""",6,1,""" be tremendous ice storms that freeze over the entire planet. These ice storms almost never last long ""","""result in permanent damage to the plants and animals on Dax""","""text""",-99,"""none""","""Weather""","""uninterrupted"""
1,1284,"""filler""","""ice storms on Dax""","""last a long time""",6,2,""" or result in permanent damage to the plants and animals on Dax.""","""result in permanent damage to the plants and animals on Dax""","""text""",-99,"""none""","""Weather""","""uninterrupted"""
1,8013,"""filler""","""ice storms on Dax""","""last a long time""",6,3,"""""","""result in permanent damage to the plants and animals on Dax""","""query""",0.02,"""none""","""Weather""","""uninterrupted"""
1,6300,"""critical""","""the aliens""","""are fishermen""",7,0,"""Like most creatures on Dax, the aliens eat other creatures. Animals like stups, four-legged creatures""","""are stup-herders""","""text""",-99,"""generic""","""Finding food""","""uninterrupted"""
1,1909,"""critical""","""the aliens""","""are fishermen""",7,1,"""with large antlers, are a resource for many. The aliens are stup-herders""","""are stup-herders""","""text""",-99,"""generic""","""Finding food""","""uninterrupted"""
1,1060,"""critical""","""the aliens""","""are fishermen""",7,2,"""and fishermen.""","""are stup-herders""","""text""",-99,"""generic""","""Finding food""","""uninterrupted"""
1,3164,"""critical""","""the aliens""","""are fishermen""",7,3,"""""","""are stup-herders""","""query""",0.5,"""generic""","""Finding food""","""uninterrupted"""
1,2582,"""critical""","""the aliens""","""burn their fields to plant soroneeks""",8,0,"""The soil on the continent of Benli is very fertile, and the aliens have learned to grow many crops. Their""","""flood their fields to plant fujusi""","""text""",-99,"""generic""","""Agriculture""","""uninterrupted_irrelevant"""
1,3404,"""critical""","""the aliens""","""burn their fields to plant soroneeks""",8,1,""" farms are very big, often stretching several miles in every direction. During the springtime, the aliens flood their fields to plant fujusi""","""flood their fields to plant fujusi""","""text""",-99,"""generic""","""Agriculture""","""uninterrupted_irrelevant"""
1,1148,"""critical""","""the aliens""","""burn their fields to plant soroneeks""",8,2,"""and in the summer watch their fields carefully.""","""flood their fields to plant fujusi""","""text""",-99,"""generic""","""Agriculture""","""uninterrupted_irrelevant"""
1,7988,"""critical""","""the aliens""","""burn their fields to plant soroneeks""",8,3,"""""","""flood their fields to plant fujusi""","""query""",0.9,"""generic""","""Agriculture""","""uninterrupted_irrelevant"""
1,2481,"""critical""","""aliens""","""ascribe to the Daith religion""",9,0,"""The aliens are the most intelligent creatures on Dax. They live on all""","""ascribe to the Caboo religion""","""text""",-99,"""generic""","""Customs and religion""","""uninterrupted"""
1,2585,"""critical""","""aliens""","""ascribe to the Daith religion""",9,1,"""continents, and follow various traditions and old customs. They ascribe to the Caboo religion""","""ascribe to the Caboo religion""","""text""",-99,"""generic""","""Customs and religion""","""uninterrupted"""
1,1059,"""critical""","""aliens""","""ascribe to the Daith religion""",9,2,"""and the Daith religion.""","""ascribe to the Caboo religion""","""text""",-99,"""generic""","""Customs and religion""","""uninterrupted"""
1,3017,"""critical""","""aliens""","""ascribe to the Daith religion""",9,3,"""""","""ascribe to the Caboo religion""","""query""",0.5,"""generic""","""Customs and religion""","""uninterrupted"""
1,4096,"""filler""","""blins""","""fly""",10,0,"""Blins are small creatures. They all have hollow bones and fly. They sing beautiful songs to attract mates""","""have hollow bones""","""text""",-99,"""all""","""Blins""","""uninterrupted"""
1,2125,"""filler""","""blins""","""fly""",10,1,"""and distract their enemies when they attack.""","""have hollow bones""","""text""",-99,"""all""","""Blins""","""uninterrupted"""
1,3044,"""filler""","""blins""","""fly""",10,2,"""""","""have hollow bones""","""query""",1,"""all""","""Blins""","""uninterrupted"""
1,3097,"""critical""","""kweps""","""like to chew on tunkel""",11,0,"""Kweps hunt in packs. They go out at night and look for creatures sleeping at the foot of trees. They""","""like to chew on xorfun""","""text""",-99,"""generic""","""Kweps""","""uninterrupted_irrelevant"""
1,3645,"""critical""","""kweps""","""like to chew on tunkel""",11,1,"""generally look for creatures sleeping alone, not in groups. Before they hunt, they like to chew on xorfun""","""like to chew on xorfun""","""text""",-99,"""generic""","""Kweps""","""uninterrupted_irrelevant"""
1,1060,"""critical""","""kweps""","""like to chew on tunkel""",11,2,"""and jump up and down in circles.""","""like to chew on xorfun""","""text""",-99,"""generic""","""Kweps""","""uninterrupted_irrelevant"""
1,3319,"""critical""","""kweps""","""like to chew on tunkel""",11,3,"""""","""like to chew on xorfun""","""query""",0.99,"""generic""","""Kweps""","""uninterrupted_irrelevant"""
1,2632,"""filler""","""kazzes""","false",12,0,"""Kazzes are a kind of plant that grow all over Dax. Some produce fruit in the springtime, but the""","""are poisonous to lorches""","""text""",-99,"""none""","""Kazzes""","""uninterrupted"""
1,3845,"""filler""","""kazzes""","false",12,1,"""  fruits are poisonous to animals. Only lorches can eat the kazzes ""","""are poisonous to lorches""","""text""",-99,"""none""","""Kazzes""","""uninterrupted"""
1,1414,"""filler""","""kazzes""","false",12,2,""" and do so quite frequently. Kazzes can be very tasty.""","""are poisonous to lorches""","""text""",-99,"""none""","""Kazzes""","""uninterrupted"""
1,5692,"""filler""","""kazzes""","false",12,3,"""""","""are poisonous to lorches""","""query""",0,"""none""","""Kazzes""","""uninterrupted"""
1,4356,"""critical""","""lorches""","""migrate north from Gomi to Caro""",13,0,"""Lorches have massive wingspans and are found on the continents of Dodi and Gomi. They eat fish""","""migrate south from Dodi to Benli""","""text""",-99,"""generic""","""Migration patterns""","""uninterrupted_irrelevant"""
1,1968,"""critical""","""lorches""","""migrate north from Gomi to Caro""",13,1,"""and big insects. In the winter, they migrate south from Dodi to Benli""","""migrate south from Dodi to Benli""","""text""",-99,"""generic""","""Migration patterns""","""uninterrupted_irrelevant"""
1,2069,"""critical""","""lorches""","""migrate north from Gomi to Caro""",13,2,"""and north from Gomi to Caro.""","""migrate south from Dodi to Benli""","""text""",-99,"""generic""","""Migration patterns""","""uninterrupted_irrelevant"""
1,4224,"""critical""","""lorches""","""migrate north from Gomi to Caro""",13,3,"""""","""migrate south from Dodi to Benli""","""query""",0.99,"""generic""","""Migration patterns""","""uninterrupted_irrelevant"""
1,2431,"""critical""","""glippets""","""live in Este""",14,0,"""Glippets are large creatures, quite intelligent, with a life-span of about sixty years.  They live in Caro""","""live in Caro""","""text""",-99,"""generic""","""Glippets""","""uninterrupted"""
1,946,"""critical""","""glippets""","""live in Este""",14,1,"""and in Este.""","""live in Caro""","""text""",-99,"""generic""","""Glippets""","""uninterrupted"""
1,2553,"""critical""","""glippets""","""live in Este""",14,2,"""""","""live in Caro""","""query""",0.5,"""generic""","""Glippets""","""uninterrupted"""
1,3427,"""filler""","""aliens""","""are provided for by Zorxon""",15,0,"""Zorxon is the overlord of Dax.  Everyone loves Zorxon because she ""","""love Zorxon""","""text""",-99,"""all""","""Zorxon, overlord of Dax""","""uninterrupted"""
1,1526,"""filler""","""aliens""","""are provided for by Zorxon""",15,1,"""provides for all the aliens of Dax. However, Zorxon is now very old ""","""love Zorxon""","""text""",-99,"""all""","""Zorxon, overlord of Dax""","""uninterrupted"""
1,1557,"""filler""","""aliens""","""are provided for by Zorxon""",15,2,"""and she rarely makes public appearances anymore. Still, she is very influential.""","""love Zorxon""","""text""",-99,"""all""","""Zorxon, overlord of Dax""","""uninterrupted"""
1,4793,"""filler""","""aliens""","""are provided for by Zorxon""",15,3,"""""","""love Zorxon""","""query""",0.85,"""all""","""Zorxon, overlord of Dax""","""uninterrupted"""
2,3898,"""filler""","""NA""","""NA""",0,0,"""Dax is a lot like Earth.  Like Earth it has seven continents, in similar locations, but instead of North ""","""NA""","""text""",-99,"""generic""","""An introduction to Dax""","""filler"""
2,1744,"""filler""","""NA""","""NA""",0,1,""" America, South America, Africa, Europe, Asia, Australia, and Antarctica, the continents are  ""","""NA""","""text""",-99,"""generic""","""An introduction to Dax""","""filler"""
2,6267,"""filler""","""NA""","""NA""",0,2,""" called  Aga,  Benli, Caro, Dodi, Ente, Fale, and Gomi. Its climate is a lot like Earth&quotechars, too. But the""","""NA""","""text""",-99,"""generic""","""An introduction to Dax""","""filler"""
2,4259,"""filler""","""NA""","""NA""",0,3,"""  plants and animals of Dax are quite different.""","""NA""","""text""",-99,"""generic""","""An introduction to Dax""","""filler"""
2,4009,"""filler""","""aliens""","""are provided for by Zorxon""",1,0,"""Zorxon is the overlord of Dax.  Everyone loves Zorxon because she ""","""love Zorxon""","""text""",-99,"""all""","""Zorxon, overlord of Dax""","""uninterrupted"""
2,2756,"""filler""","""aliens""","""are provided for by Zorxon""",1,1,"""provides for all the aliens of Dax. However, Zorxon is now very old ""","""love Zorxon""","""text""",-99,"""all""","""Zorxon, overlord of Dax""","""uninterrupted"""
2,1992,"""filler""","""aliens""","""are provided for by Zorxon""",1,2,"""and she rarely makes public appearances anymore. Still, she is very influential.""","""love Zorxon""","""text""",-99,"""all""","""Zorxon, overlord of Dax""","""uninterrupted"""
2,6404,"""filler""","""aliens""","""are provided for by Zorxon""",1,3,"""""","""love Zorxon""","""query""",0.96,"""all""","""Zorxon, overlord of Dax""","""uninterrupted"""
2,5126,"""filler""","""morseths""","false",2,0,"""The morseth is an animal that lives part of its life in the sea and part of its life on land. Morseths come""","""build permanent structures called fendles""","""text""",-99,"""some""","""Morseths""","""uninterrupted"""
2,2028,"""filler""","""morseths""","false",2,1,""" on land to find mates and to bury their dead. Some morseths build ""","""build permanent structures called fendles""","""text""",-99,"""some""","""Morseths""","""uninterrupted"""
2,2291,"""filler""","""morseths""","false",2,2,"""permanent structures called fendles in order to bury their dead kin""","""build permanent structures called fendles""","""text""",-99,"""some""","""Morseths""","""uninterrupted"""
2,762,"""filler""","""morseths""","false",2,3,"""and fendles are usually made out of wood.""","""build permanent structures called fendles""","""text""",-99,"""some""","""Morseths""","""uninterrupted"""
2,3391,"""filler""","""morseths""","false",2,4,"""""","""build permanent structures called fendles""","""query""",1,"""some""","""Morseths""","""uninterrupted"""
2,2560,"""critical""","""the aliens""","""are fishermen""",3,0,"""Like most creatures on Dax, the aliens eat other creatures. Animals like stups, four-legged creatures""","""are stup-herders""","""text""",-99,"""generic""","""Finding food""","""uninterrupted"""
2,1647,"""critical""","""the aliens""","""are fishermen""",3,1,"""with large antlers, are a resource for many. The aliens are stup-herders""","""are stup-herders""","""text""",-99,"""generic""","""Finding food""","""uninterrupted"""
2,1119,"""critical""","""the aliens""","""are fishermen""",3,2,"""and fishermen.""","""are stup-herders""","""text""",-99,"""generic""","""Finding food""","""uninterrupted"""
2,3113,"""critical""","""the aliens""","""are fishermen""",3,3,"""""","""are stup-herders""","""query""",0.5,"""generic""","""Finding food""","""uninterrupted"""
2,8223,"""critical""","""mooks""","""prefer to hunt at the bottom of deep canyons""",4,0,"""Mooks are ferocious creatures, that one would be wise to not upset. Looking into their eyes should""","""prefer to hunt at the tops of tall mountains""","""text""",-99,"""generic""","""Mooks""","""uninterrupted_irrelevant"""
2,4070,"""critical""","""mooks""","""prefer to hunt at the bottom of deep canyons""",4,1,""" be avoided because it can cause seizures in the observer. Their preferred hunting grounds are at the tops of tall mountains""","""prefer to hunt at the tops of tall mountains""","""text""",-99,"""generic""","""Mooks""","""uninterrupted_irrelevant"""
2,1008,"""critical""","""mooks""","""prefer to hunt at the bottom of deep canyons""",4,2,"""and they look for tired animals.""","""prefer to hunt at the tops of tall mountains""","""text""",-99,"""generic""","""Mooks""","""uninterrupted_irrelevant"""
2,9226,"""critical""","""mooks""","""prefer to hunt at the bottom of deep canyons""",4,3,"""""","""prefer to hunt at the tops of tall mountains""","""query""",0.9,"""generic""","""Mooks""","""uninterrupted_irrelevant"""
2,3477,"""critical""","""aliens""","""ascribe to the Daith religion""",5,0,"""The aliens are the most intelligent creatures on Dax. They live on all""","""ascribe to the Caboo religion""","""text""",-99,"""generic""","""Customs and religion""","""uninterrupted"""
2,2776,"""critical""","""aliens""","""ascribe to the Daith religion""",5,1,"""continents, and follow various traditions and old customs. They ascribe to the Caboo religion""","""ascribe to the Caboo religion""","""text""",-99,"""generic""","""Customs and religion""","""uninterrupted"""
2,1282,"""critical""","""aliens""","""ascribe to the Daith religion""",5,2,"""and the Daith religion.""","""ascribe to the Caboo religion""","""text""",-99,"""generic""","""Customs and religion""","""uninterrupted"""
2,2352,"""critical""","""aliens""","""ascribe to the Daith religion""",5,3,"""""","""ascribe to the Caboo religion""","""query""",1,"""generic""","""Customs and religion""","""uninterrupted"""
2,4340,"""critical""","""the aliens""","""burn their fields to plant soroneeks""",6,0,"""The soil on the continent of Benli is very fertile, and the aliens have learned to grow many crops. Their""","""flood their fields to plant fujusi""","""text""",-99,"""generic""","""Agriculture""","""uninterrupted_irrelevant"""
2,2576,"""critical""","""the aliens""","""burn their fields to plant soroneeks""",6,1,""" farms are very big, often stretching several miles in every direction. During the springtime, the aliens flood their fields to plant fujusi""","""flood their fields to plant fujusi""","""text""",-99,"""generic""","""Agriculture""","""uninterrupted_irrelevant"""
2,975,"""critical""","""the aliens""","""burn their fields to plant soroneeks""",6,2,"""and in the summer watch their fields carefully.""","""flood their fields to plant fujusi""","""text""",-99,"""generic""","""Agriculture""","""uninterrupted_irrelevant"""
2,6410,"""critical""","""the aliens""","""burn their fields to plant soroneeks""",6,3,"""""","""flood their fields to plant fujusi""","""query""",0.85,"""generic""","""Agriculture""","""uninterrupted_irrelevant"""
2,91399,"""critical""","""fengnors""","""build nests in droops""",7,0,"""Fengnors are smaller, nocturnal creatures. They often hide under the leaves of short trees to avoid ""","""build nests in gluers""","""text""",-99,"""generic""","""Fengnors""","""uninterrupted_irrelevant"""
2,1899,"""critical""","""fengnors""","""build nests in droops""",7,1,"""being seen by larger predators. They scrape the bark off trees to eat. They build their nests in gluers""","""build nests in gluers""","""text""",-99,"""generic""","""Fengnors""","""uninterrupted_irrelevant"""
2,1327,"""critical""","""fengnors""","""build nests in droops""",7,2,"""and watch over them carefully.""","""build nests in gluers""","""text""",-99,"""generic""","""Fengnors""","""uninterrupted_irrelevant"""
2,3968,"""critical""","""fengnors""","""build nests in droops""",7,3,"""""","""build nests in gluers""","""query""",0.8,"""generic""","""Fengnors""","""uninterrupted_irrelevant"""
2,3793,"""critical""","""ollers""","""carry their young in pundegs""",8,0,"""Ollers spend most of their lives in water, but occasionally come on land to gather berries. Baby ollers""","""carry their young in guklags""","""text""",-99,"""generic""","""Ollers""","""uninterrupted"""
2,2152,"""critical""","""ollers""","""carry their young in pundegs""",8,1,"""find it very exciting to be on land, but they have trouble walking. Ollers carry their young in guklags""","""carry their young in guklags""","""text""",-99,"""generic""","""Ollers""","""uninterrupted"""
2,1089,"""critical""","""ollers""","""carry their young in pundegs""",8,2,"""and in pundegs.""","""carry their young in guklags""","""text""",-99,"""generic""","""Ollers""","""uninterrupted"""
2,5744,"""critical""","""ollers""","""carry their young in pundegs""",8,3,"""""","""carry their young in guklags""","""query""",0.6,"""generic""","""Ollers""","""uninterrupted"""
2,34843,"""filler""","""kazzes""","false",9,0,"""Kazzes are a kind of plant that grow all over Dax. Some produce fruit in the springtime, but the""","""are poisonous to lorches""","""text""",-99,"""none""","""Kazzes""","""uninterrupted"""
2,1851,"""filler""","""kazzes""","false",9,1,"""  fruits are poisonous to animals. Only lorches can eat the kazzes ""","""are poisonous to lorches""","""text""",-99,"""none""","""Kazzes""","""uninterrupted"""
2,1479,"""filler""","""kazzes""","false",9,2,""" and do so quite frequently. Kazzes can be very tasty.""","""are poisonous to lorches""","""text""",-99,"""none""","""Kazzes""","""uninterrupted"""
2,4365,"""filler""","""kazzes""","false",9,3,"""""","""are poisonous to lorches""","""query""",1,"""none""","""Kazzes""","""uninterrupted"""
2,5450,"""critical""","""reesles""","""wear krevnors around their heads""",10,0,"""Reesles are strange, furry creatures, often found in the homes of the aliens. They are not house pets""","""wear wutsats around their heads""","""text""",-99,"""generic""","""Reesles""","""uninterrupted"""
2,3392,"""critical""","""reesles""","""wear krevnors around their heads""",10,1,"""but quasi-domensticated animals. They will steal food from you if you are not paying attention. Around their heads, they wear giant wutsats""","""wear wutsats around their heads""","""text""",-99,"""generic""","""Reesles""","""uninterrupted"""
2,936,"""critical""","""reesles""","""wear krevnors around their heads""",10,2,"""and krevnors.""","""wear wutsats around their heads""","""text""",-99,"""generic""","""Reesles""","""uninterrupted"""
2,4345,"""critical""","""reesles""","""wear krevnors around their heads""",10,3,"""""","""wear wutsats around their heads""","""query""",1,"""generic""","""Reesles""","""uninterrupted"""
2,2905,"""filler""","""ice storms on Dax""","""last a long time""",11,0,"""The weather on Dax is very constant, not changing much from day to day. Occasionally, there will ""","""result in permanent damage to the plants and animals on Dax""","""text""",-99,"""none""","""Weather""","""uninterrupted"""
2,2239,"""filler""","""ice storms on Dax""","""last a long time""",11,1,""" be tremendous ice storms that freeze over the entire planet. These ice storms almost never last long ""","""result in permanent damage to the plants and animals on Dax""","""text""",-99,"""none""","""Weather""","""uninterrupted"""
2,1003,"""filler""","""ice storms on Dax""","""last a long time""",11,2,""" or result in permanent damage to the plants and animals on Dax.""","""result in permanent damage to the plants and animals on Dax""","""text""",-99,"""none""","""Weather""","""uninterrupted"""
2,6817,"""filler""","""ice storms on Dax""","""last a long time""",11,3,"""""","""result in permanent damage to the plants and animals on Dax""","""query""",0.2,"""none""","""Weather""","""uninterrupted"""
2,48992,"""critical""","""glippets""","""live in Este""",12,0,"""Glippets are large creatures, quite intelligent, with a life-span of about sixty years.  They live in Caro""","""live in Caro""","""text""",-99,"""generic""","""Glippets""","""uninterrupted_irrelevant"""
2,991,"""critical""","""glippets""","""live in Este""",12,1,"""and enjoy the sunshine.""","""live in Caro""","""text""",-99,"""generic""","""Glippets""","""uninterrupted_irrelevant"""
2,3600,"""critical""","""glippets""","""live in Este""",12,2,"""""","""live in Caro""","""query""",0.8,"""generic""","""Glippets""","""uninterrupted_irrelevant"""
2,39961,"""critical""","""kweps""","""like to chew on tunkel""",13,0,"""Kweps hunt in packs. They go out at night and look for creatures sleeping at the foot of trees. They""","""like to chew on xorfun""","""text""",-99,"""generic""","""Kweps""","""uninterrupted"""
2,3327,"""critical""","""kweps""","""like to chew on tunkel""",13,1,"""generally look for creatures sleeping alone, not in groups. Before they hunt, they like to chew on xorfun""","""like to chew on xorfun""","""text""",-99,"""generic""","""Kweps""","""uninterrupted"""
2,1046,"""critical""","""kweps""","""like to chew on tunkel""",13,2,"""and on tunkel.""","""like to chew on xorfun""","""text""",-99,"""generic""","""Kweps""","""uninterrupted"""
2,2400,"""critical""","""kweps""","""like to chew on tunkel""",13,3,"""""","""like to chew on xorfun""","""query""",1,"""generic""","""Kweps""","""uninterrupted"""
2,3276,"""critical""","""lorches""","""migrate north from Gomi to Caro""",14,0,"""Lorches have massive wingspans and are found on the continents of Dodi and Gomi. They eat fish""","""migrate south from Dodi to Benli""","""text""",-99,"""generic""","""Migration patterns""","""uninterrupted_irrelevant"""
2,1050,"""critical""","""lorches""","""migrate north from Gomi to Caro""",14,1,"""and big insects. In the winter, they migrate south from Dodi to Benli""","""migrate south from Dodi to Benli""","""text""",-99,"""generic""","""Migration patterns""","""uninterrupted_irrelevant"""
2,1223,"""critical""","""lorches""","""migrate north from Gomi to Caro""",14,2,"""and north from Gomi to Caro.""","""migrate south from Dodi to Benli""","""text""",-99,"""generic""","""Migration patterns""","""uninterrupted_irrelevant"""
2,2353,"""critical""","""lorches""","""migrate north from Gomi to Caro""",14,3,"""""","""migrate south from Dodi to Benli""","""query""",1,"""generic""","""Migration patterns""","""uninterrupted_irrelevant"""
2,2335,"""filler""","""blins""","""fly""",15,0,"""Blins are small creatures. They all have hollow bones and fly. They sing beautiful songs to attract mates""","""have hollow bones""","""text""",-99,"""all""","""Blins""","""uninterrupted"""
2,991,"""filler""","""blins""","""fly""",15,1,"""and distract their enemies when they attack.""","""have hollow bones""","""text""",-99,"""all""","""Blins""","""uninterrupted"""
2,2473,"""filler""","""blins""","""fly""",15,2,"""""","""have hollow bones""","""query""",1,"""all""","""Blins""","""uninterrupted"""
3,5160,"""filler""","""NA""","""NA""",0,0,"""Dax is a lot like Earth.  Like Earth it has seven continents, in similar locations, but instead of North ""","""NA""","""text""",-99,"""generic""","""An introduction to Dax""","""filler"""
3,3749,"""filler""","""NA""","""NA""",0,1,""" America, South America, Africa, Europe, Asia, Australia, and Antarctica, the continents are  ""","""NA""","""text""",-99,"""generic""","""An introduction to Dax""","""filler"""
3,6758,"""filler""","""NA""","""NA""",0,2,""" called  Aga,  Benli, Caro, Dodi, Ente, Fale, and Gomi. Its climate is a lot like Earth&quotechars, too. But the""","""NA""","""text""",-99,"""generic""","""An introduction to Dax""","""filler"""
3,2507,"""filler""","""NA""","""NA""",0,3,"""  plants and animals of Dax are quite different.""","""NA""","""text""",-99,"""generic""","""An introduction to Dax""","""filler"""
3,5460,"""filler""","""ice storms on Dax""","""last a long time""",1,0,"""The weather on Dax is very constant, not changing much from day to day. Occasionally, there will ""","""result in permanent damage to the plants and animals on Dax""","""text""",-99,"""none""","""Weather""","""uninterrupted"""
3,3528,"""filler""","""ice storms on Dax""","""last a long time""",1,1,""" be tremendous ice storms that freeze over the entire planet. These ice storms almost never last long ""","""result in permanent damage to the plants and animals on Dax""","""text""",-99,"""none""","""Weather""","""uninterrupted"""
3,3344,"""filler""","""ice storms on Dax""","""last a long time""",1,2,""" or result in permanent damage to the plants and animals on Dax.""","""result in permanent damage to the plants and animals on Dax""","""text""",-99,"""none""","""Weather""","""uninterrupted"""
3,7570,"""filler""","""ice storms on Dax""","""last a long time""",1,3,"""""","""result in permanent damage to the plants and animals on Dax""","""query""",0.4,"""none""","""Weather""","""uninterrupted"""
3,20705,"""critical""","""reesles""","""wear krevnors around their heads""",2,0,"""Reesles are strange, furry creatures, often found in the homes of the aliens. They are not house pets""","""wear wutsats around their heads""","""text""",-99,"""generic""","""Reesles""","""uninterrupted"""
3,7389,"""critical""","""reesles""","""wear krevnors around their heads""",2,1,"""but quasi-domensticated animals. They will steal food from you if you are not paying attention. Around their heads, they wear giant wutsats""","""wear wutsats around their heads""","""text""",-99,"""generic""","""Reesles""","""uninterrupted"""
3,1044,"""critical""","""reesles""","""wear krevnors around their heads""",2,2,"""and krevnors.""","""wear wutsats around their heads""","""text""",-99,"""generic""","""Reesles""","""uninterrupted"""
3,4385,"""critical""","""reesles""","""wear krevnors around their heads""",2,3,"""""","""wear wutsats around their heads""","""query""",0.6,"""generic""","""Reesles""","""uninterrupted"""
3,7278,"""critical""","""ollers""","""carry their young in pundegs""",3,0,"""Ollers spend most of their lives in water, but occasionally come on land to gather berries. Baby ollers""","""carry their young in guklags""","""text""",-99,"""generic""","""Ollers""","""uninterrupted_irrelevant"""
3,4817,"""critical""","""ollers""","""carry their young in pundegs""",3,1,"""find it very exciting to be on land, but they have trouble walking. Ollers carry their young in guklags""","""carry their young in guklags""","""text""",-99,"""generic""","""Ollers""","""uninterrupted_irrelevant"""
3,1122,"""critical""","""ollers""","""carry their young in pundegs""",3,2,"""and are very protective.""","""carry their young in guklags""","""text""",-99,"""generic""","""Ollers""","""uninterrupted_irrelevant"""
3,7309,"""critical""","""ollers""","""carry their young in pundegs""",3,3,"""""","""carry their young in guklags""","""query""",0.84,"""generic""","""Ollers""","""uninterrupted_irrelevant"""
3,11214,"""filler""","""kazzes""","false",4,0,"""Kazzes are a kind of plant that grow all over Dax. Some produce fruit in the springtime, but the""","""are poisonous to lorches""","""text""",-99,"""none""","""Kazzes""","""uninterrupted"""
3,20932,"""filler""","""kazzes""","false",4,1,"""  fruits are poisonous to animals. Only lorches can eat the kazzes ""","""are poisonous to lorches""","""text""",-99,"""none""","""Kazzes""","""uninterrupted"""
3,4197,"""filler""","""kazzes""","false",4,2,""" and do so quite frequently. Kazzes can be very tasty.""","""are poisonous to lorches""","""text""",-99,"""none""","""Kazzes""","""uninterrupted"""
3,5193,"""filler""","""kazzes""","false",4,3,"""""","""are poisonous to lorches""","""query""",0.4,"""none""","""Kazzes""","""uninterrupted"""
3,6084,"""critical""","""lorches""","""migrate north from Gomi to Caro""",5,0,"""Lorches have massive wingspans and are found on the continents of Dodi and Gomi. They eat fish""","""migrate south from Dodi to Benli""","""text""",-99,"""generic""","""Migration patterns""","""uninterrupted"""
3,2481,"""critical""","""lorches""","""migrate north from Gomi to Caro""",5,1,"""and big insects. In the winter, they migrate south from Dodi to Benli""","""migrate south from Dodi to Benli""","""text""",-99,"""generic""","""Migration patterns""","""uninterrupted"""
3,3851,"""critical""","""lorches""","""migrate north from Gomi to Caro""",5,2,"""and fly only at night.""","""migrate south from Dodi to Benli""","""text""",-99,"""generic""","""Migration patterns""","""uninterrupted"""
3,13235,"""critical""","""lorches""","""migrate north from Gomi to Caro""",5,3,"""""","""migrate south from Dodi to Benli""","""query""",0.74,"""generic""","""Migration patterns""","""uninterrupted"""
3,3312,"""filler""","""morseths""","false",6,0,"""The morseth is an animal that lives part of its life in the sea and part of its life on land. Morseths come""","""build permanent structures called fendles""","""text""",-99,"""some""","""Morseths""","""uninterrupted"""
3,4563,"""filler""","""morseths""","false",6,1,""" on land to find mates and to bury their dead. Some morseths build ""","""build permanent structures called fendles""","""text""",-99,"""some""","""Morseths""","""uninterrupted"""
3,4818,"""filler""","""morseths""","false",6,2,"""permanent structures called fendles in order to bury their dead kin""","""build permanent structures called fendles""","""text""",-99,"""some""","""Morseths""","""uninterrupted"""
3,1618,"""filler""","""morseths""","false",6,3,"""and fendles are usually made out of wood.""","""build permanent structures called fendles""","""text""",-99,"""some""","""Morseths""","""uninterrupted"""
3,4214,"""filler""","""morseths""","false",6,4,"""""","""build permanent structures called fendles""","""query""",0.83,"""some""","""Morseths""","""uninterrupted"""
3,4232,"""critical""","""fengnors""","""build nests in droops""",7,0,"""Fengnors are smaller, nocturnal creatures. They often hide under the leaves of short trees to avoid ""","""build nests in gluers""","""text""",-99,"""generic""","""Fengnors""","""uninterrupted_irrelevant"""
3,3669,"""critical""","""fengnors""","""build nests in droops""",7,1,"""being seen by larger predators. They scrape the bark off trees to eat. They build their nests in gluers""","""build nests in gluers""","""text""",-99,"""generic""","""Fengnors""","""uninterrupted_irrelevant"""
3,1207,"""critical""","""fengnors""","""build nests in droops""",7,2,"""and watch over them carefully.""","""build nests in gluers""","""text""",-99,"""generic""","""Fengnors""","""uninterrupted_irrelevant"""
3,5428,"""critical""","""fengnors""","""build nests in droops""",7,3,"""""","""build nests in gluers""","""query""",0.7,"""generic""","""Fengnors""","""uninterrupted_irrelevant"""
3,4304,"""filler""","""blins""","""fly""",8,0,"""Blins are small creatures. They all have hollow bones and fly. They sing beautiful songs to attract mates""","""have hollow bones""","""text""",-99,"""all""","""Blins""","""uninterrupted"""
3,2122,"""filler""","""blins""","""fly""",8,1,"""and distract their enemies when they attack.""","""have hollow bones""","""text""",-99,"""all""","""Blins""","""uninterrupted"""
3,4549,"""filler""","""blins""","""fly""",8,2,"""""","""have hollow bones""","""query""",1,"""all""","""Blins""","""uninterrupted"""
3,3701,"""critical""","""glippets""","""live in Este""",9,0,"""Glippets are large creatures, quite intelligent, with a life-span of about sixty years.  They live in Caro""","""live in Caro""","""text""",-99,"""generic""","""Glippets""","""uninterrupted"""
3,1454,"""critical""","""glippets""","""live in Este""",9,1,"""and in Este.""","""live in Caro""","""text""",-99,"""generic""","""Glippets""","""uninterrupted"""
3,4376,"""critical""","""glippets""","""live in Este""",9,2,"""""","""live in Caro""","""query""",0.5,"""generic""","""Glippets""","""uninterrupted"""
3,6323,"""critical""","""mooks""","""prefer to hunt at the bottom of deep canyons""",10,0,"""Mooks are ferocious creatures, that one would be wise to not upset. Looking into their eyes should""","""prefer to hunt at the tops of tall mountains""","""text""",-99,"""generic""","""Mooks""","""uninterrupted_irrelevant"""
3,7166,"""critical""","""mooks""","""prefer to hunt at the bottom of deep canyons""",10,1,""" be avoided because it can cause seizures in the observer. Their preferred hunting grounds are at the tops of tall mountains""","""prefer to hunt at the tops of tall mountains""","""text""",-99,"""generic""","""Mooks""","""uninterrupted_irrelevant"""
3,1716,"""critical""","""mooks""","""prefer to hunt at the bottom of deep canyons""",10,2,"""and they look for tired animals.""","""prefer to hunt at the tops of tall mountains""","""text""",-99,"""generic""","""Mooks""","""uninterrupted_irrelevant"""
3,1734,"""critical""","""mooks""","""prefer to hunt at the bottom of deep canyons""",10,3,"""""","""prefer to hunt at the tops of tall mountains""","""query""",0.73,"""generic""","""Mooks""","""uninterrupted_irrelevant"""
3,4484,"""critical""","""the aliens""","""burn their fields to plant soroneeks""",11,0,"""The soil on the continent of Benli is very fertile, and the aliens have learned to grow many crops. Their""","""flood their fields to plant fujusi""","""text""",-99,"""generic""","""Agriculture""","""uninterrupted_irrelevant"""
3,8555,"""critical""","""the aliens""","""burn their fields to plant soroneeks""",11,1,""" farms are very big, often stretching several miles in every direction. During the springtime, the aliens flood their fields to plant fujusi""","""flood their fields to plant fujusi""","""text""",-99,"""generic""","""Agriculture""","""uninterrupted_irrelevant"""
3,1364,"""critical""","""the aliens""","""burn their fields to plant soroneeks""",11,2,"""and in the summer watch their fields carefully.""","""flood their fields to plant fujusi""","""text""",-99,"""generic""","""Agriculture""","""uninterrupted_irrelevant"""
3,3326,"""critical""","""the aliens""","""burn their fields to plant soroneeks""",11,3,"""""","""flood their fields to plant fujusi""","""query""",0.9,"""generic""","""Agriculture""","""uninterrupted_irrelevant"""
3,2764,"""critical""","""aliens""","""ascribe to the Daith religion""",12,0,"""The aliens are the most intelligent creatures on Dax. They live on all""","""ascribe to the Caboo religion""","""text""",-99,"""generic""","""Customs and religion""","""uninterrupted"""
3,4416,"""critical""","""aliens""","""ascribe to the Daith religion""",12,1,"""continents, and follow various traditions and old customs. They ascribe to the Caboo religion""","""ascribe to the Caboo religion""","""text""",-99,"""generic""","""Customs and religion""","""uninterrupted"""
3,1171,"""critical""","""aliens""","""ascribe to the Daith religion""",12,2,"""and the Daith religion.""","""ascribe to the Caboo religion""","""text""",-99,"""generic""","""Customs and religion""","""uninterrupted"""
3,3210,"""critical""","""aliens""","""ascribe to the Daith religion""",12,3,"""""","""ascribe to the Caboo religion""","""query""",0.5,"""generic""","""Customs and religion""","""uninterrupted"""
3,7163,"""critical""","""kweps""","""like to chew on tunkel""",13,0,"""Kweps hunt in packs. They go out at night and look for creatures sleeping at the foot of trees. They""","""like to chew on xorfun""","""text""",-99,"""generic""","""Kweps""","""uninterrupted_irrelevant"""
3,8078,"""critical""","""kweps""","""like to chew on tunkel""",13,1,"""generally look for creatures sleeping alone, not in groups. Before they hunt, they like to chew on xorfun""","""like to chew on xorfun""","""text""",-99,"""generic""","""Kweps""","""uninterrupted_irrelevant"""
3,1711,"""critical""","""kweps""","""like to chew on tunkel""",13,2,"""and jump up and down in circles.""","""like to chew on xorfun""","""text""",-99,"""generic""","""Kweps""","""uninterrupted_irrelevant"""
3,3887,"""critical""","""kweps""","""like to chew on tunkel""",13,3,"""""","""like to chew on xorfun""","""query""",0.89,"""generic""","""Kweps""","""uninterrupted_irrelevant"""
3,3093,"""filler""","""aliens""","""are provided for by Zorxon""",14,0,"""Zorxon is the overlord of Dax.  Everyone loves Zorxon because she ""","""love Zorxon""","""text""",-99,"""all""","""Zorxon, overlord of Dax""","""uninterrupted"""
3,2672,"""filler""","""aliens""","""are provided for by Zorxon""",14,1,"""provides for all the aliens of Dax. However, Zorxon is now very old ""","""love Zorxon""","""text""",-99,"""all""","""Zorxon, overlord of Dax""","""uninterrupted"""
3,2287,"""filler""","""aliens""","""are provided for by Zorxon""",14,2,"""and she rarely makes public appearances anymore. Still, she is very influential.""","""love Zorxon""","""text""",-99,"""all""","""Zorxon, overlord of Dax""","""uninterrupted"""
3,3848,"""filler""","""aliens""","""are provided for by Zorxon""",14,3,"""""","""love Zorxon""","""query""",0.9,"""all""","""Zorxon, overlord of Dax""","""uninterrupted"""
3,4398,"""critical""","""the aliens""","""are fishermen""",15,0,"""Like most creatures on Dax, the aliens eat other creatures. Animals like stups, four-legged creatures""","""are stup-herders""","""text""",-99,"""generic""","""Finding food""","""uninterrupted"""
3,2417,"""critical""","""the aliens""","""are fishermen""",15,1,"""with large antlers, are a resource for many. The aliens are stup-herders""","""are stup-herders""","""text""",-99,"""generic""","""Finding food""","""uninterrupted"""
3,966,"""critical""","""the aliens""","""are fishermen""",15,2,"""and fishermen.""","""are stup-herders""","""text""",-99,"""generic""","""Finding food""","""uninterrupted"""
3,8088,"""critical""","""the aliens""","""are fishermen""",15,3,"""""","""are stup-herders""","""query""",0.45,"""generic""","""Finding food""","""uninterrupted"""
4,1317,"""filler""","""NA""","""NA""",0,0,"""Dax is a lot like Earth.  Like Earth it has seven continents, in similar locations, but instead of North ""","""NA""","""text""",-99,"""generic""","""An introduction to Dax""","""filler"""
4,1463,"""filler""","""NA""","""NA""",0,1,""" America, South America, Africa, Europe, Asia, Australia, and Antarctica, the continents are  ""","""NA""","""text""",-99,"""generic""","""An introduction to Dax""","""filler"""
4,528,"""filler""","""NA""","""NA""",0,2,""" called  Aga,  Benli, Caro, Dodi, Ente, Fale, and Gomi. Its climate is a lot like Earth&quotechars, too. But the""","""NA""","""text""",-99,"""generic""","""An introduction to Dax""","""filler"""
4,817,"""filler""","""NA""","""NA""",0,3,"""  plants and animals of Dax are quite different.""","""NA""","""text""",-99,"""generic""","""An introduction to Dax""","""filler"""
4,925,"""filler""","""morseths""","false",1,0,"""The morseth is an animal that lives part of its life in the sea and part of its life on land. Morseths come""","""build permanent structures called fendles""","""text""",-99,"""some""","""Morseths""","""uninterrupted"""
4,904,"""filler""","""morseths""","false",1,1,""" on land to find mates and to bury their dead. Some morseths build ""","""build permanent structures called fendles""","""text""",-99,"""some""","""Morseths""","""uninterrupted"""
4,1006,"""filler""","""morseths""","false",1,2,"""permanent structures called fendles in order to bury their dead kin""","""build permanent structures called fendles""","""text""",-99,"""some""","""Morseths""","""uninterrupted"""
4,447,"""filler""","""morseths""","false",1,3,"""and fendles are usually made out of wood.""","""build permanent structures called fendles""","""text""",-99,"""some""","""Morseths""","""uninterrupted"""
4,2455,"""filler""","""morseths""","false",1,4,"""""","""build permanent structures called fendles""","""query""",0.77,"""some""","""Morseths""","""uninterrupted"""
4,911,"""filler""","""aliens""","""are provided for by Zorxon""",2,0,"""Zorxon is the overlord of Dax.  Everyone loves Zorxon because she ""","""love Zorxon""","""text""",-99,"""all""","""Zorxon, overlord of Dax""","""uninterrupted"""
4,2992,"""filler""","""aliens""","""are provided for by Zorxon""",2,1,"""provides for all the aliens of Dax. However, Zorxon is now very old ""","""love Zorxon""","""text""",-99,"""all""","""Zorxon, overlord of Dax""","""uninterrupted"""
4,665,"""filler""","""aliens""","""are provided for by Zorxon""",2,2,"""and she rarely makes public appearances anymore. Still, she is very influential.""","""love Zorxon""","""text""",-99,"""all""","""Zorxon, overlord of Dax""","""uninterrupted"""
4,1727,"""filler""","""aliens""","""are provided for by Zorxon""",2,3,"""""","""love Zorxon""","""query""",0.77,"""all""","""Zorxon, overlord of Dax""","""uninterrupted"""
4,687,"""critical""","""glippets""","""live in Este""",3,0,"""Glippets are large creatures, quite intelligent, with a life-span of about sixty years.  They live in Caro""","""live in Caro""","""text""",-99,"""generic""","""Glippets""","""uninterrupted"""
4,982,"""critical""","""glippets""","""live in Este""",3,1,"""and in Este.""","""live in Caro""","""text""",-99,"""generic""","""Glippets""","""uninterrupted"""
4,1842,"""critical""","""glippets""","""live in Este""",3,2,"""""","""live in Caro""","""query""",0.7,"""generic""","""Glippets""","""uninterrupted"""
4,3075,"""critical""","""kweps""","""like to chew on tunkel""",4,0,"""Kweps hunt in packs. They go out at night and look for creatures sleeping at the foot of trees. They""","""like to chew on xorfun""","""text""",-99,"""generic""","""Kweps""","""uninterrupted_irrelevant"""
4,811,"""critical""","""kweps""","""like to chew on tunkel""",4,1,"""generally look for creatures sleeping alone, not in groups. Before they hunt, they like to chew on xorfun""","""like to chew on xorfun""","""text""",-99,"""generic""","""Kweps""","""uninterrupted_irrelevant"""
4,1229,"""critical""","""kweps""","""like to chew on tunkel""",4,2,"""and jump up and down in circles.""","""like to chew on xorfun""","""text""",-99,"""generic""","""Kweps""","""uninterrupted_irrelevant"""
4,2041,"""critical""","""kweps""","""like to chew on tunkel""",4,3,"""""","""like to chew on xorfun""","""query""",0.87,"""generic""","""Kweps""","""uninterrupted_irrelevant"""
4,1222,"""critical""","""the aliens""","""burn their fields to plant soroneeks""",5,0,"""The soil on the continent of Benli is very fertile, and the aliens have learned to grow many crops. Their""","""flood their fields to plant fujusi""","""text""",-99,"""generic""","""Agriculture""","""uninterrupted"""
4,1050,"""critical""","""the aliens""","""burn their fields to plant soroneeks""",5,1,""" farms are very big, often stretching several miles in every direction. During the springtime, the aliens flood their fields to plant fujusi""","""flood their fields to plant fujusi""","""text""",-99,"""generic""","""Agriculture""","""uninterrupted"""
4,1006,"""critical""","""the aliens""","""burn their fields to plant soroneeks""",5,2,"""and burn their fields to plant soroneeks.""","""flood their fields to plant fujusi""","""text""",-99,"""generic""","""Agriculture""","""uninterrupted"""
4,1767,"""critical""","""the aliens""","""burn their fields to plant soroneeks""",5,3,"""""","""flood their fields to plant fujusi""","""query""",0.81,"""generic""","""Agriculture""","""uninterrupted"""
4,848,"""critical""","""fengnors""","""build nests in droops""",6,0,"""Fengnors are smaller, nocturnal creatures. They often hide under the leaves of short trees to avoid ""","""build nests in gluers""","""text""",-99,"""generic""","""Fengnors""","""uninterrupted_irrelevant"""
4,865,"""critical""","""fengnors""","""build nests in droops""",6,1,"""being seen by larger predators. They scrape the bark off trees to eat. They build their nests in gluers""","""build nests in gluers""","""text""",-99,"""generic""","""Fengnors""","""uninterrupted_irrelevant"""
4,869,"""critical""","""fengnors""","""build nests in droops""",6,2,"""and watch over them carefully.""","""build nests in gluers""","""text""",-99,"""generic""","""Fengnors""","""uninterrupted_irrelevant"""
4,1920,"""critical""","""fengnors""","""build nests in droops""",6,3,"""""","""build nests in gluers""","""query""",0.72,"""generic""","""Fengnors""","""uninterrupted_irrelevant"""
4,966,"""critical""","""lorches""","""migrate north from Gomi to Caro""",7,0,"""Lorches have massive wingspans and are found on the continents of Dodi and Gomi. They eat fish""","""migrate south from Dodi to Benli""","""text""",-99,"""generic""","""Migration patterns""","""uninterrupted_irrelevant"""
4,1058,"""critical""","""lorches""","""migrate north from Gomi to Caro""",7,1,"""and big insects. In the winter, they migrate south from Dodi to Benli""","""migrate south from Dodi to Benli""","""text""",-99,"""generic""","""Migration patterns""","""uninterrupted_irrelevant"""
4,1112,"""critical""","""lorches""","""migrate north from Gomi to Caro""",7,2,"""and north from Gomi to Caro.""","""migrate south from Dodi to Benli""","""text""",-99,"""generic""","""Migration patterns""","""uninterrupted_irrelevant"""
4,1959,"""critical""","""lorches""","""migrate north from Gomi to Caro""",7,3,"""""","""migrate south from Dodi to Benli""","""query""",0.82,"""generic""","""Migration patterns""","""uninterrupted_irrelevant"""
4,898,"""critical""","""mooks""","""prefer to hunt at the bottom of deep canyons""",8,0,"""Mooks are ferocious creatures, that one would be wise to not upset. Looking into their eyes should""","""prefer to hunt at the tops of tall mountains""","""text""",-99,"""generic""","""Mooks""","""uninterrupted"""
4,513,"""critical""","""mooks""","""prefer to hunt at the bottom of deep canyons""",8,1,""" be avoided because it can cause seizures in the observer. Their preferred hunting grounds are at the tops of tall mountains""","""prefer to hunt at the tops of tall mountains""","""text""",-99,"""generic""","""Mooks""","""uninterrupted"""
4,951,"""critical""","""mooks""","""prefer to hunt at the bottom of deep canyons""",8,2,"""and at the bottom of deep canyons.""","""prefer to hunt at the tops of tall mountains""","""text""",-99,"""generic""","""Mooks""","""uninterrupted"""
4,2407,"""critical""","""mooks""","""prefer to hunt at the bottom of deep canyons""",8,3,"""""","""prefer to hunt at the tops of tall mountains""","""query""",0.78,"""generic""","""Mooks""","""uninterrupted"""
4,2407,"""filler""","""blins""","""fly""",9,0,"""Blins are small creatures. They all have hollow bones and fly. They sing beautiful songs to attract mates""","""have hollow bones""","""text""",-99,"""all""","""Blins""","""uninterrupted"""
4,1120,"""filler""","""blins""","""fly""",9,1,"""and distract their enemies when they attack.""","""have hollow bones""","""text""",-99,"""all""","""Blins""","""uninterrupted"""
4,1800,"""filler""","""blins""","""fly""",9,2,"""""","""have hollow bones""","""query""",0.86,"""all""","""Blins""","""uninterrupted"""
4,861,"""critical""","""reesles""","""wear krevnors around their heads""",10,0,"""Reesles are strange, furry creatures, often found in the homes of the aliens. They are not house pets""","""wear wutsats around their heads""","""text""",-99,"""generic""","""Reesles""","""uninterrupted"""
4,791,"""critical""","""reesles""","""wear krevnors around their heads""",10,1,"""but quasi-domensticated animals. They will steal food from you if you are not paying attention. Around their heads, they wear giant wutsats""","""wear wutsats around their heads""","""text""",-99,"""generic""","""Reesles""","""uninterrupted"""
4,1001,"""critical""","""reesles""","""wear krevnors around their heads""",10,2,"""and krevnors.""","""wear wutsats around their heads""","""text""",-99,"""generic""","""Reesles""","""uninterrupted"""
4,1171,"""critical""","""reesles""","""wear krevnors around their heads""",10,3,"""""","""wear wutsats around their heads""","""query""",0.72,"""generic""","""Reesles""","""uninterrupted"""
4,968,"""filler""","""kazzes""","false",11,0,"""Kazzes are a kind of plant that grow all over Dax. Some produce fruit in the springtime, but the""","""are poisonous to lorches""","""text""",-99,"""none""","""Kazzes""","""uninterrupted"""
4,864,"""filler""","""kazzes""","false",11,1,"""  fruits are poisonous to animals. Only lorches can eat the kazzes ""","""are poisonous to lorches""","""text""",-99,"""none""","""Kazzes""","""uninterrupted"""
4,681,"""filler""","""kazzes""","false",11,2,""" and do so quite frequently. Kazzes can be very tasty.""","""are poisonous to lorches""","""text""",-99,"""none""","""Kazzes""","""uninterrupted"""
4,1353,"""filler""","""kazzes""","false",11,3,"""""","""are poisonous to lorches""","""query""",0.73,"""none""","""Kazzes""","""uninterrupted"""
4,1123,"""critical""","""aliens""","""ascribe to the Daith religion""",12,0,"""The aliens are the most intelligent creatures on Dax. They live on all""","""ascribe to the Caboo religion""","""text""",-99,"""generic""","""Customs and religion""","""uninterrupted_irrelevant"""
4,943,"""critical""","""aliens""","""ascribe to the Daith religion""",12,1,"""continents, and follow various traditions and old customs. They ascribe to the Caboo religion""","""ascribe to the Caboo religion""","""text""",-99,"""generic""","""Customs and religion""","""uninterrupted_irrelevant"""
4,759,"""critical""","""aliens""","""ascribe to the Daith religion""",12,2,"""and follow a strict code of laws.""","""ascribe to the Caboo religion""","""text""",-99,"""generic""","""Customs and religion""","""uninterrupted_irrelevant"""
4,1128,"""critical""","""aliens""","""ascribe to the Daith religion""",12,3,"""""","""ascribe to the Caboo religion""","""query""",0.7,"""generic""","""Customs and religion""","""uninterrupted_irrelevant"""
4,686,"""critical""","""ollers""","""carry their young in pundegs""",13,0,"""Ollers spend most of their lives in water, but occasionally come on land to gather berries. Baby ollers""","""carry their young in guklags""","""text""",-99,"""generic""","""Ollers""","""uninterrupted"""
4,1273,"""critical""","""ollers""","""carry their young in pundegs""",13,1,"""find it very exciting to be on land, but they have trouble walking. Ollers carry their young in guklags""","""carry their young in guklags""","""text""",-99,"""generic""","""Ollers""","""uninterrupted"""
4,856,"""critical""","""ollers""","""carry their young in pundegs""",13,2,"""and in pundegs.""","""carry their young in guklags""","""text""",-99,"""generic""","""Ollers""","""uninterrupted"""
4,2352,"""critical""","""ollers""","""carry their young in pundegs""",13,3,"""""","""carry their young in guklags""","""query""",0.72,"""generic""","""Ollers""","""uninterrupted"""
4,1019,"""critical""","""the aliens""","""are fishermen""",14,0,"""Like most creatures on Dax, the aliens eat other creatures. Animals like stups, four-legged creatures""","""are stup-herders""","""text""",-99,"""generic""","""Finding food""","""uninterrupted_irrelevant"""
4,784,"""critical""","""the aliens""","""are fishermen""",14,1,"""with large antlers, are a resource for many. The aliens are stup-herders""","""are stup-herders""","""text""",-99,"""generic""","""Finding food""","""uninterrupted_irrelevant"""
4,489,"""critical""","""the aliens""","""are fishermen""",14,2,"""and incorporate stups into their religion.""","""are stup-herders""","""text""",-99,"""generic""","""Finding food""","""uninterrupted_irrelevant"""
4,1776,"""critical""","""the aliens""","""are fishermen""",14,3,"""""","""are stup-herders""","""query""",0.79,"""generic""","""Finding food""","""uninterrupted_irrelevant"""
4,1204,"""filler""","""ice storms on Dax""","""last a long time""",15,0,"""The weather on Dax is very constant, not changing much from day to day. Occasionally, there will ""","""result in permanent damage to the plants and animals on Dax""","""text""",-99,"""none""","""Weather""","""uninterrupted"""
4,702,"""filler""","""ice storms on Dax""","""last a long time""",15,1,""" be tremendous ice storms that freeze over the entire planet. These ice storms almost never last long ""","""result in permanent damage to the plants and animals on Dax""","""text""",-99,"""none""","""Weather""","""uninterrupted"""
4,1340,"""filler""","""ice storms on Dax""","""last a long time""",15,2,""" or result in permanent damage to the plants and animals on Dax.""","""result in permanent damage to the plants and animals on Dax""","""text""",-99,"""none""","""Weather""","""uninterrupted"""
4,1613,"""filler""","""ice storms on Dax""","""last a long time""",15,3,"""""","""result in permanent damage to the plants and animals on Dax""","""query""",0.88,"""none""","""Weather""","""uninterrupted"""
5,5035,"""filler""","""NA""","""NA""",0,0,"""Dax is a lot like Earth.  Like Earth it has seven continents, in similar locations, but instead of North ""","""NA""","""text""",-99,"""generic""","""An introduction to Dax""","""filler"""
5,10653,"""filler""","""NA""","""NA""",0,1,""" America, South America, Africa, Europe, Asia, Australia, and Antarctica, the continents are  ""","""NA""","""text""",-99,"""generic""","""An introduction to Dax""","""filler"""
5,17014,"""filler""","""NA""","""NA""",0,2,""" called  Aga,  Benli, Caro, Dodi, Ente, Fale, and Gomi. Its climate is a lot like Earth&quotechars, too. But the""","""NA""","""text""",-99,"""generic""","""An introduction to Dax""","""filler"""
5,2128,"""filler""","""NA""","""NA""",0,3,"""  plants and animals of Dax are quite different.""","""NA""","""text""",-99,"""generic""","""An introduction to Dax""","""filler"""
5,7103,"""filler""","""blins""","""fly""",1,0,"""Blins are small creatures. They all have hollow bones and fly. They sing beautiful songs to attract mates""","""have hollow bones""","""text""",-99,"""all""","""Blins""","""uninterrupted"""
5,2400,"""filler""","""blins""","""fly""",1,1,"""and distract their enemies when they attack.""","""have hollow bones""","""text""",-99,"""all""","""Blins""","""uninterrupted"""
5,6647,"""filler""","""blins""","""fly""",1,2,"""""","""have hollow bones""","""query""",1,"""all""","""Blins""","""uninterrupted"""
5,4116,"""filler""","""ice storms on Dax""","""last a long time""",2,0,"""The weather on Dax is very constant, not changing much from day to day. Occasionally, there will ""","""result in permanent damage to the plants and animals on Dax""","""text""",-99,"""none""","""Weather""","""uninterrupted"""
5,3975,"""filler""","""ice storms on Dax""","""last a long time""",2,1,""" be tremendous ice storms that freeze over the entire planet. These ice storms almost never last long ""","""result in permanent damage to the plants and animals on Dax""","""text""",-99,"""none""","""Weather""","""uninterrupted"""
5,4021,"""filler""","""ice storms on Dax""","""last a long time""",2,2,""" or result in permanent damage to the plants and animals on Dax.""","""result in permanent damage to the plants and animals on Dax""","""text""",-99,"""none""","""Weather""","""uninterrupted"""
5,9121,"""filler""","""ice storms on Dax""","""last a long time""",2,3,"""""","""result in permanent damage to the plants and animals on Dax""","""query""",0,"""none""","""Weather""","""uninterrupted"""
5,8666,"""critical""","""reesles""","""wear krevnors around their heads""",3,0,"""Reesles are strange, furry creatures, often found in the homes of the aliens. They are not house pets""","""wear wutsats around their heads""","""text""",-99,"""generic""","""Reesles""","""uninterrupted"""
5,9199,"""critical""","""reesles""","""wear krevnors around their heads""",3,1,"""but quasi-domensticated animals. They will steal food from you if you are not paying attention. Around their heads, they wear giant wutsats""","""wear wutsats around their heads""","""text""",-99,"""generic""","""Reesles""","""uninterrupted"""
5,4056,"""critical""","""reesles""","""wear krevnors around their heads""",3,2,"""and krevnors.""","""wear wutsats around their heads""","""text""",-99,"""generic""","""Reesles""","""uninterrupted"""
5,11391,"""critical""","""reesles""","""wear krevnors around their heads""",3,3,"""""","""wear wutsats around their heads""","""query""",0.5,"""generic""","""Reesles""","""uninterrupted"""
5,8781,"""critical""","""lorches""","""migrate north from Gomi to Caro""",4,0,"""Lorches have massive wingspans and are found on the continents of Dodi and Gomi. They eat fish""","""migrate south from Dodi to Benli""","""text""",-99,"""generic""","""Migration patterns""","""uninterrupted_irrelevant"""
5,9219,"""critical""","""lorches""","""migrate north from Gomi to Caro""",4,1,"""and big insects. In the winter, they migrate south from Dodi to Benli""","""migrate south from Dodi to Benli""","""text""",-99,"""generic""","""Migration patterns""","""uninterrupted_irrelevant"""
5,5751,"""critical""","""lorches""","""migrate north from Gomi to Caro""",4,2,"""and north from Gomi to Caro.""","""migrate south from Dodi to Benli""","""text""",-99,"""generic""","""Migration patterns""","""uninterrupted_irrelevant"""
5,8807,"""critical""","""lorches""","""migrate north from Gomi to Caro""",4,3,"""""","""migrate south from Dodi to Benli""","""query""",0.5,"""generic""","""Migration patterns""","""uninterrupted_irrelevant"""
5,8101,"""critical""","""the aliens""","""are fishermen""",5,0,"""Like most creatures on Dax, the aliens eat other creatures. Animals like stups, four-legged creatures""","""are stup-herders""","""text""",-99,"""generic""","""Finding food""","""uninterrupted"""
5,5455,"""critical""","""the aliens""","""are fishermen""",5,1,"""with large antlers, are a resource for many. The aliens are stup-herders""","""are stup-herders""","""text""",-99,"""generic""","""Finding food""","""uninterrupted"""
5,2463,"""critical""","""the aliens""","""are fishermen""",5,2,"""and fishermen.""","""are stup-herders""","""text""",-99,"""generic""","""Finding food""","""uninterrupted"""
5,8719,"""critical""","""the aliens""","""are fishermen""",5,3,"""""","""are stup-herders""","""query""",0.98,"""generic""","""Finding food""","""uninterrupted"""
5,3029,"""critical""","""aliens""","""ascribe to the Daith religion""",6,0,"""The aliens are the most intelligent creatures on Dax. They live on all""","""ascribe to the Caboo religion""","""text""",-99,"""generic""","""Customs and religion""","""uninterrupted_irrelevant"""
5,3744,"""critical""","""aliens""","""ascribe to the Daith religion""",6,1,"""continents, and follow various traditions and old customs. They ascribe to the Caboo religion""","""ascribe to the Caboo religion""","""text""",-99,"""generic""","""Customs and religion""","""uninterrupted_irrelevant"""
5,2463,"""critical""","""aliens""","""ascribe to the Daith religion""",6,2,"""and follow a strict code of laws.""","""ascribe to the Caboo religion""","""text""",-99,"""generic""","""Customs and religion""","""uninterrupted_irrelevant"""
5,9111,"""critical""","""aliens""","""ascribe to the Daith religion""",6,3,"""""","""ascribe to the Caboo religion""","""query""",0.8,"""generic""","""Customs and religion""","""uninterrupted_irrelevant"""
5,5667,"""critical""","""fengnors""","""build nests in droops""",7,0,"""Fengnors are smaller, nocturnal creatures. They often hide under the leaves of short trees to avoid ""","""build nests in gluers""","""text""",-99,"""generic""","""Fengnors""","""uninterrupted_irrelevant"""
5,6503,"""critical""","""fengnors""","""build nests in droops""",7,1,"""being seen by larger predators. They scrape the bark off trees to eat. They build their nests in gluers""","""build nests in gluers""","""text""",-99,"""generic""","""Fengnors""","""uninterrupted_irrelevant"""
5,4623,"""critical""","""fengnors""","""build nests in droops""",7,2,"""and watch over them carefully.""","""build nests in gluers""","""text""",-99,"""generic""","""Fengnors""","""uninterrupted_irrelevant"""
5,15478,"""critical""","""fengnors""","""build nests in droops""",7,3,"""""","""build nests in gluers""","""query""",0.7,"""generic""","""Fengnors""","""uninterrupted_irrelevant"""
5,9654,"""critical""","""glippets""","""live in Este""",8,0,"""Glippets are large creatures, quite intelligent, with a life-span of about sixty years.  They live in Caro""","""live in Caro""","""text""",-99,"""generic""","""Glippets""","""uninterrupted"""
5,6367,"""critical""","""glippets""","""live in Este""",8,1,"""and in Este.""","""live in Caro""","""text""",-99,"""generic""","""Glippets""","""uninterrupted"""
5,9423,"""critical""","""glippets""","""live in Este""",8,2,"""""","""live in Caro""","""query""",0.5,"""generic""","""Glippets""","""uninterrupted"""
5,7237,"""filler""","""kazzes""","false",9,0,"""Kazzes are a kind of plant that grow all over Dax. Some produce fruit in the springtime, but the""","""are poisonous to lorches""","""text""",-99,"""none""","""Kazzes""","""uninterrupted"""
5,6293,"""filler""","""kazzes""","false",9,1,"""  fruits are poisonous to animals. Only lorches can eat the kazzes ""","""are poisonous to lorches""","""text""",-99,"""none""","""Kazzes""","""uninterrupted"""
5,3239,"""filler""","""kazzes""","false",9,2,""" and do so quite frequently. Kazzes can be very tasty.""","""are poisonous to lorches""","""text""",-99,"""none""","""Kazzes""","""uninterrupted"""
5,9991,"""filler""","""kazzes""","false",9,3,"""""","""are poisonous to lorches""","""query""",0.02,"""none""","""Kazzes""","""uninterrupted"""
5,6470,"""critical""","""kweps""","""like to chew on tunkel""",10,0,"""Kweps hunt in packs. They go out at night and look for creatures sleeping at the foot of trees. They""","""like to chew on xorfun""","""text""",-99,"""generic""","""Kweps""","""uninterrupted"""
5,3935,"""critical""","""kweps""","""like to chew on tunkel""",10,1,"""generally look for creatures sleeping alone, not in groups. Before they hunt, they like to chew on xorfun""","""like to chew on xorfun""","""text""",-99,"""generic""","""Kweps""","""uninterrupted"""
5,2607,"""critical""","""kweps""","""like to chew on tunkel""",10,2,"""and on tunkel.""","""like to chew on xorfun""","""text""",-99,"""generic""","""Kweps""","""uninterrupted"""
5,5342,"""critical""","""kweps""","""like to chew on tunkel""",10,3,"""""","""like to chew on xorfun""","""query""",1,"""generic""","""Kweps""","""uninterrupted"""
5,7973,"""filler""","""morseths""","false",11,0,"""The morseth is an animal that lives part of its life in the sea and part of its life on land. Morseths come""","""build permanent structures called fendles""","""text""",-99,"""some""","""Morseths""","""uninterrupted"""
5,5056,"""filler""","""morseths""","false",11,1,""" on land to find mates and to bury their dead. Some morseths build ""","""build permanent structures called fendles""","""text""",-99,"""some""","""Morseths""","""uninterrupted"""
5,4056,"""filler""","""morseths""","false",11,2,"""permanent structures called fendles in order to bury their dead kin""","""build permanent structures called fendles""","""text""",-99,"""some""","""Morseths""","""uninterrupted"""
5,2133,"""filler""","""morseths""","false",11,3,"""and fendles are usually made out of wood.""","""build permanent structures called fendles""","""text""",-99,"""some""","""Morseths""","""uninterrupted"""
5,7809,"""filler""","""morseths""","false",11,4,"""""","""build permanent structures called fendles""","""query""",0.35,"""some""","""Morseths""","""uninterrupted"""
5,5035,"""critical""","""the aliens""","""burn their fields to plant soroneeks""",12,0,"""The soil on the continent of Benli is very fertile, and the aliens have learned to grow many crops. Their""","""flood their fields to plant fujusi""","""text""",-99,"""generic""","""Agriculture""","""uninterrupted_irrelevant"""
5,4807,"""critical""","""the aliens""","""burn their fields to plant soroneeks""",12,1,""" farms are very big, often stretching several miles in every direction. During the springtime, the aliens flood their fields to plant fujusi""","""flood their fields to plant fujusi""","""text""",-99,"""generic""","""Agriculture""","""uninterrupted_irrelevant"""
5,3592,"""critical""","""the aliens""","""burn their fields to plant soroneeks""",12,2,"""and in the summer watch their fields carefully.""","""flood their fields to plant fujusi""","""text""",-99,"""generic""","""Agriculture""","""uninterrupted_irrelevant"""
5,5975,"""critical""","""the aliens""","""burn their fields to plant soroneeks""",12,3,"""""","""flood their fields to plant fujusi""","""query""",1,"""generic""","""Agriculture""","""uninterrupted_irrelevant"""
5,9246,"""critical""","""mooks""","""prefer to hunt at the bottom of deep canyons""",13,0,"""Mooks are ferocious creatures, that one would be wise to not upset. Looking into their eyes should""","""prefer to hunt at the tops of tall mountains""","""text""",-99,"""generic""","""Mooks""","""uninterrupted"""
5,6862,"""critical""","""mooks""","""prefer to hunt at the bottom of deep canyons""",13,1,""" be avoided because it can cause seizures in the observer. Their preferred hunting grounds are at the tops of tall mountains""","""prefer to hunt at the tops of tall mountains""","""text""",-99,"""generic""","""Mooks""","""uninterrupted"""
5,2568,"""critical""","""mooks""","""prefer to hunt at the bottom of deep canyons""",13,2,"""and at the bottom of deep canyons.""","""prefer to hunt at the tops of tall mountains""","""text""",-99,"""generic""","""Mooks""","""uninterrupted"""
5,6128,"""critical""","""mooks""","""prefer to hunt at the bottom of deep canyons""",13,3,"""""","""prefer to hunt at the tops of tall mountains""","""query""",1,"""generic""","""Mooks""","""uninterrupted"""
5,4782,"""critical""","""ollers""","""carry their young in pundegs""",14,0,"""Ollers spend most of their lives in water, but occasionally come on land to gather berries. Baby ollers""","""carry their young in guklags""","""text""",-99,"""generic""","""Ollers""","""uninterrupted_irrelevant"""
5,4176,"""critical""","""ollers""","""carry their young in pundegs""",14,1,"""find it very exciting to be on land, but they have trouble walking. Ollers carry their young in guklags""","""carry their young in guklags""","""text""",-99,"""generic""","""Ollers""","""uninterrupted_irrelevant"""
5,1759,"""critical""","""ollers""","""carry their young in pundegs""",14,2,"""and are very protective.""","""carry their young in guklags""","""text""",-99,"""generic""","""Ollers""","""uninterrupted_irrelevant"""
5,8151,"""critical""","""ollers""","""carry their young in pundegs""",14,3,"""""","""carry their young in guklags""","""query""",0.95,"""generic""","""Ollers""","""uninterrupted_irrelevant"""
5,4658,"""filler""","""aliens""","""are provided for by Zorxon""",15,0,"""Zorxon is the overlord of Dax.  Everyone loves Zorxon because she ""","""love Zorxon""","""text""",-99,"""all""","""Zorxon, overlord of Dax""","""uninterrupted"""
5,2967,"""filler""","""aliens""","""are provided for by Zorxon""",15,1,"""provides for all the aliens of Dax. However, Zorxon is now very old ""","""love Zorxon""","""text""",-99,"""all""","""Zorxon, overlord of Dax""","""uninterrupted"""
5,3176,"""filler""","""aliens""","""are provided for by Zorxon""",15,2,"""and she rarely makes public appearances anymore. Still, she is very influential.""","""love Zorxon""","""text""",-99,"""all""","""Zorxon, overlord of Dax""","""uninterrupted"""
5,8287,"""filler""","""aliens""","""are provided for by Zorxon""",15,3,"""""","""love Zorxon""","""query""",0.75,"""all""","""Zorxon, overlord of Dax""","""uninterrupted"""
6,20170,"""filler""","""NA""","""NA""",0,0,"""Dax is a lot like Earth.  Like Earth it has seven continents, in similar locations, but instead of North ""","""NA""","""text""",-99,"""generic""","""An introduction to Dax""","""filler"""
6,4951,"""filler""","""NA""","""NA""",0,1,""" America, South America, Africa, Europe, Asia, Australia, and Antarctica, the continents are  ""","""NA""","""text""",-99,"""generic""","""An introduction to Dax""","""filler"""
6,69761,"""filler""","""NA""","""NA""",0,2,""" called  Aga,  Benli, Caro, Dodi, Ente, Fale, and Gomi. Its climate is a lot like Earth&quotechars, too. But the""","""NA""","""text""",-99,"""generic""","""An introduction to Dax""","""filler"""
6,2069,"""filler""","""NA""","""NA""",0,3,"""  plants and animals of Dax are quite different.""","""NA""","""text""",-99,"""generic""","""An introduction to Dax""","""filler"""
6,11762,"""filler""","""kazzes""","false",1,0,"""Kazzes are a kind of plant that grow all over Dax. Some produce fruit in the springtime, but the""","""are poisonous to lorches""","""text""",-99,"""none""","""Kazzes""","""uninterrupted"""
6,2170,"""filler""","""kazzes""","false",1,1,"""  fruits are poisonous to animals. Only lorches can eat the kazzes ""","""are poisonous to lorches""","""text""",-99,"""none""","""Kazzes""","""uninterrupted"""
6,2859,"""filler""","""kazzes""","false",1,2,""" and do so quite frequently. Kazzes can be very tasty.""","""are poisonous to lorches""","""text""",-99,"""none""","""Kazzes""","""uninterrupted"""
6,3169,"""filler""","""kazzes""","false",1,3,"""""","""are poisonous to lorches""","""query""",0.3,"""none""","""Kazzes""","""uninterrupted"""
6,16882,"""filler""","""morseths""","false",2,0,"""The morseth is an animal that lives part of its life in the sea and part of its life on land. Morseths come""","""build permanent structures called fendles""","""text""",-99,"""some""","""Morseths""","""uninterrupted"""
6,2166,"""filler""","""morseths""","false",2,1,""" on land to find mates and to bury their dead. Some morseths build ""","""build permanent structures called fendles""","""text""",-99,"""some""","""Morseths""","""uninterrupted"""
6,1973,"""filler""","""morseths""","false",2,2,"""permanent structures called fendles in order to bury their dead kin""","""build permanent structures called fendles""","""text""",-99,"""some""","""Morseths""","""uninterrupted"""
6,1159,"""filler""","""morseths""","false",2,3,"""and fendles are usually made out of wood.""","""build permanent structures called fendles""","""text""",-99,"""some""","""Morseths""","""uninterrupted"""
6,3619,"""filler""","""morseths""","false",2,4,"""""","""build permanent structures called fendles""","""query""",0.64,"""some""","""Morseths""","""uninterrupted"""
6,94613,"""critical""","""ollers""","""carry their young in pundegs""",3,0,"""Ollers spend most of their lives in water, but occasionally come on land to gather berries. Baby ollers""","""carry their young in guklags""","""text""",-99,"""generic""","""Ollers""","""uninterrupted"""
6,2258,"""critical""","""ollers""","""carry their young in pundegs""",3,1,"""find it very exciting to be on land, but they have trouble walking. Ollers carry their young in guklags""","""carry their young in guklags""","""text""",-99,"""generic""","""Ollers""","""uninterrupted"""
6,1453,"""critical""","""ollers""","""carry their young in pundegs""",3,2,"""and in pundegs.""","""carry their young in guklags""","""text""",-99,"""generic""","""Ollers""","""uninterrupted"""
6,4987,"""critical""","""ollers""","""carry their young in pundegs""",3,3,"""""","""carry their young in guklags""","""query""",0.57,"""generic""","""Ollers""","""uninterrupted"""
6,8506,"""critical""","""lorches""","""migrate north from Gomi to Caro""",4,0,"""Lorches have massive wingspans and are found on the continents of Dodi and Gomi. They eat fish""","""migrate south from Dodi to Benli""","""text""",-99,"""generic""","""Migration patterns""","""uninterrupted_irrelevant"""
6,2127,"""critical""","""lorches""","""migrate north from Gomi to Caro""",4,1,"""and big insects. In the winter, they migrate south from Dodi to Benli""","""migrate south from Dodi to Benli""","""text""",-99,"""generic""","""Migration patterns""","""uninterrupted_irrelevant"""
6,1290,"""critical""","""lorches""","""migrate north from Gomi to Caro""",4,2,"""and north from Gomi to Caro.""","""migrate south from Dodi to Benli""","""text""",-99,"""generic""","""Migration patterns""","""uninterrupted_irrelevant"""
6,2626,"""critical""","""lorches""","""migrate north from Gomi to Caro""",4,3,"""""","""migrate south from Dodi to Benli""","""query""",1,"""generic""","""Migration patterns""","""uninterrupted_irrelevant"""
6,31036,"""critical""","""kweps""","""like to chew on tunkel""",5,0,"""Kweps hunt in packs. They go out at night and look for creatures sleeping at the foot of trees. They""","""like to chew on xorfun""","""text""",-99,"""generic""","""Kweps""","""uninterrupted"""
6,2435,"""critical""","""kweps""","""like to chew on tunkel""",5,1,"""generally look for creatures sleeping alone, not in groups. Before they hunt, they like to chew on xorfun""","""like to chew on xorfun""","""text""",-99,"""generic""","""Kweps""","""uninterrupted"""
6,815,"""critical""","""kweps""","""like to chew on tunkel""",5,2,"""and on tunkel.""","""like to chew on xorfun""","""text""",-99,"""generic""","""Kweps""","""uninterrupted"""
6,3270,"""critical""","""kweps""","""like to chew on tunkel""",5,3,"""""","""like to chew on xorfun""","""query""",0.79,"""generic""","""Kweps""","""uninterrupted"""
6,2772,"""critical""","""mooks""","""prefer to hunt at the bottom of deep canyons""",6,0,"""Mooks are ferocious creatures, that one would be wise to not upset. Looking into their eyes should""","""prefer to hunt at the tops of tall mountains""","""text""",-99,"""generic""","""Mooks""","""uninterrupted_irrelevant"""
6,3599,"""critical""","""mooks""","""prefer to hunt at the bottom of deep canyons""",6,1,""" be avoided because it can cause seizures in the observer. Their preferred hunting grounds are at the tops of tall mountains""","""prefer to hunt at the tops of tall mountains""","""text""",-99,"""generic""","""Mooks""","""uninterrupted_irrelevant"""
6,1064,"""critical""","""mooks""","""prefer to hunt at the bottom of deep canyons""",6,2,"""and they look for tired animals.""","""prefer to hunt at the tops of tall mountains""","""text""",-99,"""generic""","""Mooks""","""uninterrupted_irrelevant"""
6,5328,"""critical""","""mooks""","""prefer to hunt at the bottom of deep canyons""",6,3,"""""","""prefer to hunt at the tops of tall mountains""","""query""",0.86,"""generic""","""Mooks""","""uninterrupted_irrelevant"""
6,2730,"""critical""","""fengnors""","""build nests in droops""",7,0,"""Fengnors are smaller, nocturnal creatures. They often hide under the leaves of short trees to avoid ""","""build nests in gluers""","""text""",-99,"""generic""","""Fengnors""","""uninterrupted_irrelevant"""
6,10260,"""critical""","""fengnors""","""build nests in droops""",7,1,"""being seen by larger predators. They scrape the bark off trees to eat. They build their nests in gluers""","""build nests in gluers""","""text""",-99,"""generic""","""Fengnors""","""uninterrupted_irrelevant"""
6,1399,"""critical""","""fengnors""","""build nests in droops""",7,2,"""and watch over them carefully.""","""build nests in gluers""","""text""",-99,"""generic""","""Fengnors""","""uninterrupted_irrelevant"""
6,3147,"""critical""","""fengnors""","""build nests in droops""",7,3,"""""","""build nests in gluers""","""query""",1,"""generic""","""Fengnors""","""uninterrupted_irrelevant"""
6,4146,"""critical""","""the aliens""","""are fishermen""",8,0,"""Like most creatures on Dax, the aliens eat other creatures. Animals like stups, four-legged creatures""","""are stup-herders""","""text""",-99,"""generic""","""Finding food""","""uninterrupted"""
6,1153,"""critical""","""the aliens""","""are fishermen""",8,1,"""with large antlers, are a resource for many. The aliens are stup-herders""","""are stup-herders""","""text""",-99,"""generic""","""Finding food""","""uninterrupted"""
6,945,"""critical""","""the aliens""","""are fishermen""",8,2,"""and fishermen.""","""are stup-herders""","""text""",-99,"""generic""","""Finding food""","""uninterrupted"""
6,5738,"""critical""","""the aliens""","""are fishermen""",8,3,"""""","""are stup-herders""","""query""",0.85,"""generic""","""Finding food""","""uninterrupted"""
6,19199,"""filler""","""ice storms on Dax""","""last a long time""",9,0,"""The weather on Dax is very constant, not changing much from day to day. Occasionally, there will ""","""result in permanent damage to the plants and animals on Dax""","""text""",-99,"""none""","""Weather""","""uninterrupted"""
6,1427,"""filler""","""ice storms on Dax""","""last a long time""",9,1,""" be tremendous ice storms that freeze over the entire planet. These ice storms almost never last long ""","""result in permanent damage to the plants and animals on Dax""","""text""",-99,"""none""","""Weather""","""uninterrupted"""
6,936,"""filler""","""ice storms on Dax""","""last a long time""",9,2,""" or result in permanent damage to the plants and animals on Dax.""","""result in permanent damage to the plants and animals on Dax""","""text""",-99,"""none""","""Weather""","""uninterrupted"""
6,3751,"""filler""","""ice storms on Dax""","""last a long time""",9,3,"""""","""result in permanent damage to the plants and animals on Dax""","""query""",0.29,"""none""","""Weather""","""uninterrupted"""
6,1524,"""critical""","""reesles""","""wear krevnors around their heads""",10,0,"""Reesles are strange, furry creatures, often found in the homes of the aliens. They are not house pets""","""wear wutsats around their heads""","""text""",-99,"""generic""","""Reesles""","""uninterrupted"""
6,4430,"""critical""","""reesles""","""wear krevnors around their heads""",10,1,"""but quasi-domensticated animals. They will steal food from you if you are not paying attention. Around their heads, they wear giant wutsats""","""wear wutsats around their heads""","""text""",-99,"""generic""","""Reesles""","""uninterrupted"""
6,1114,"""critical""","""reesles""","""wear krevnors around their heads""",10,2,"""and krevnors.""","""wear wutsats around their heads""","""text""",-99,"""generic""","""Reesles""","""uninterrupted"""
6,4624,"""critical""","""reesles""","""wear krevnors around their heads""",10,3,"""""","""wear wutsats around their heads""","""query""",0.62,"""generic""","""Reesles""","""uninterrupted"""
6,3410,"""filler""","""aliens""","""are provided for by Zorxon""",11,0,"""Zorxon is the overlord of Dax.  Everyone loves Zorxon because she ""","""love Zorxon""","""text""",-99,"""all""","""Zorxon, overlord of Dax""","""uninterrupted"""
