"workerid","rt","trial_type","kind","predicate_2","query_predicate_2","information","chapter_num","query_predicate_1","page_num","page_content","predicate_1","page_type","question_order","response_2","quantifier","response_1","chapter","condition","conjunctionBreak"
0,1205,"""filler""","""NA""","""NA""",NA,NA,0,NA,"0","""Dax is a lot like Earth.  It has seven continents in similar places, but instead of Africa, Europe, Asia, ""","""NA""","""text""",NA,-99,"""generic""",-99,"""An introduction to Dax""","""uninterrupted""",NA
0,910,"""filler""","""NA""","""NA""",NA,NA,0,NA,"1","""Australia, Antarctica and North and South America, the continents ""","""NA""","""text""",NA,-99,"""generic""",-99,"""An introduction to Dax""","""uninterrupted""",NA
0,1449,"""filler""","""NA""","""NA""",NA,NA,0,NA,"2","""are called  Aga,  Benli, Caro, Dodi, Ente, Fale, and Gomi. Its climate is a lot like Earth&quotechars, too. But the""","""NA""","""text""",NA,-99,"""generic""",-99,"""An introduction to Dax""","""uninterrupted""",NA
0,616,"""filler""","""NA""","""NA""",NA,NA,0,NA,"3","""  plants and animals of Dax are quite different.""","""NA""","""text""",NA,-99,"""generic""",-99,"""An introduction to Dax""","""uninterrupted""",NA
0,959,"""filler""","""aliens""","""admire Wint""",NA,"""interruption""",1,NA,"0","""Wint lived a long time ago in the mountains.  But all aliens remember Wint and admire him because he ""","""remember Wint""","""text""",NA,-99,"""all""",-99,"""Wint of the Mountains""","""interrupted""","""after"""
0,1977,"""filler""","""aliens""","""admire Wint""",NA,"""interruption""",1,NA,"1","""was the one that found the lost city of Baff. While he wasn&quotechart exploring, ""","""remember Wint""","""text""",NA,-99,"""all""",-99,"""Wint of the Mountains""","""interrupted""","""after"""
0,480,"""filler""","""aliens""","""admire Wint""",NA,"""interruption""",1,NA,"2","""Wint stayed in his village in the mountains. He was a hunter and ""","""remember Wint""","""text""",NA,-99,"""all""",-99,"""Wint of the Mountains""","""interrupted""","""after"""
0,2399,"""filler""","""aliens""","""admire Wint""","""admire Wint""","""interruption""",1,"""remember Wint""","null","""""","""remember Wint""","""query""","""same""",0.47,"""all""",0.65,"""Wint of the Mountains""","""interrupted""","""after"""
0,1177,"""filler""","""aliens""","""admire Wint""","""admire Wint""","""interruption""",1,"""remember Wint""","3","""a blacksmith.""","""remember Wint""","""text""","""same""",0.47,"""all""",0.65,"""Wint of the Mountains""","""interrupted""","""after"""
0,863,"""critical""","""glippets""","""live on some other continent""","""admire Wint""",NA,2,"""remember Wint""","0","""Glippets are large creatures, quite intelligent, with a life-span of about ""","""live on the continent of Caro""","""text""","""same""",-99,"""generic""",-99,"""Glippets""","""before""",NA
0,1296,"""critical""","""glippets""","""live on some other continent""","""admire Wint""",NA,2,"""remember Wint""","1","""sixty years. They live on the southern continent of Caro""","""live on the continent of Caro""","""text""","""same""",-99,"""generic""",-99,"""Glippets""","""before""",NA
0,506,"""critical""","""glippets""","""live on some other continent""","""admire Wint""",NA,2,"""remember Wint""","2","""and on the northern continent of Este.""","""live on the continent of Caro""","""text""","""same""",-99,"""generic""",-99,"""Glippets""","""before""",NA
0,2334,"""critical""","""glippets""","""live on some other continent""","""live on some other continent""",NA,2,"""live on the continent of Caro""","3","""""","""live on the continent of Caro""","""query""","""same""",0.37,"""generic""",0.73,"""Glippets""","""before""",NA
0,911,"""filler""","""supools""","""live for a very long time""","""live on some other continent""","""full""",3,"""live on the continent of Caro""","0","""Supools are the biggest creatures on Dax. They all live in the oceans and ""","""live in the oceans""","""text""","""same""",-99,"""all""",-99,"""Supools""","""interrupted""","""before"""
0,401,"""filler""","""supools""","""live for a very long time""","""live on some other continent""","""full""",3,"""live on the continent of Caro""","1","""all of them live for a very long time. In the mornings, they play in the open ocean. Supools travel as pairs ""","""live in the oceans""","""text""","""same""",-99,"""all""",-99,"""Supools""","""interrupted""","""before"""
0,2816,"""filler""","""supools""","""live for a very long time""","""live for a very long time""","""full""",3,"""live in the oceans""","null","""""","""live in the oceans""","""query""","""same""",0.43,"""all""",0.68,"""Supools""","""interrupted""","""before"""
0,890,"""filler""","""supools""","""live for a very long time""","""live for a very long time""","""full""",3,"""live in the oceans""","2","""and in large groups of more than ten individuals.""","""live in the oceans""","""text""","""same""",0.43,"""all""",0.68,"""Supools""","""interrupted""","""before"""
0,652,"""critical""","""vimble queens""","""hibernate in some other location""","""live for a very long time""",NA,4,"""live in the oceans""","0","""Vimbles are social insects that live in colonies of up to a thousand individuals. Vimbles live for a year ""","""hibernate in fallen logs""","""text""","""same""",-99,"""generic""",-99,"""Vimbles""","""after""",NA
0,728,"""critical""","""vimble queens""","""hibernate in some other location""","""live for a very long time""",NA,4,"""live in the oceans""","1","""or less. They have a single queen, who must find somewhere to ""","""hibernate in fallen logs""","""text""","""same""",-99,"""generic""",-99,"""Vimbles""","""after""",NA
0,801,"""critical""","""vimble queens""","""hibernate in some other location""","""live for a very long time""",NA,4,"""live in the oceans""","2","""hibernate over the winter before starting a new colony. Vimble ""","""hibernate in fallen logs""","""text""","""same""",-99,"""generic""",-99,"""Vimbles""","""after""",NA
0,679,"""critical""","""vimble queens""","""hibernate in some other location""","""live for a very long time""",NA,4,"""live in the oceans""","3","""queens hibernate in fallen logs and""","""hibernate in fallen logs""","""text""","""same""",-99,"""generic""",-99,"""Vimbles""","""after""",NA
0,577,"""critical""","""vimble queens""","""hibernate in some other location""","""live for a very long time""",NA,4,"""live in the oceans""","4","""in the abandoned burrows of other animals.""","""hibernate in fallen logs""","""text""","""same""",-99,"""generic""",-99,"""Vimbles""","""after""",NA
0,2311,"""critical""","""vimble queens""","""hibernate in some other location""","""hibernate in some other location""",NA,4,"""hibernate in fallen logs""","5","""""","""hibernate in fallen logs""","""query""","""same""",0.45,"""generic""",0.87,"""Vimbles""","""after""",NA
0,729,"""critical""","""lorches""","""have some other type of wing""","""hibernate in some other location""",NA,5,"""hibernate in fallen logs""","0","""Lorches have massive beaks and are found on the continents of Dodi ""","""have long wings""","""text""","""same""",-99,"""generic""",-99,"""Lorches""","""int1""",NA
0,1207,"""critical""","""lorches""","""have some other type of wing""","""hibernate in some other location""",NA,5,"""hibernate in fallen logs""","1","""and Gomi. The two continents are quite different in what kinds of ""","""have long wings""","""text""","""same""",-99,"""generic""",-99,"""Lorches""","""int1""",NA
0,480,"""critical""","""lorches""","""have some other type of wing""","""hibernate in some other location""",NA,5,"""hibernate in fallen logs""","2","""animals are available for them to eat. Lorches have long wings""","""have long wings""","""text""","""same""",-99,"""generic""",-99,"""Lorches""","""int1""",NA
0,2217,"""critical""","""lorches""","""have some other type of wing""","""have some other type of wing""",NA,5,"""have long wings""","null","""""","""have long wings""","""query""","""same""",0.59,"""generic""",0.78,"""Lorches""","""int1""",NA
0,1000,"""critical""","""lorches""","""have some other type of wing""","""have some other type of wing""",NA,5,"""have long wings""","3","""and fly only at night.""","""have long wings""","""text""","""same""",0.59,"""generic""",0.78,"""Lorches""","""int1""",NA
0,1096,"""filler""","""ice storms on Dax""","""last a long time""","""have some other type of wing""","""full""",6,"""have long wings""","0","""Occasionally on Dax, there will be tremendous ice storms that freeze over the entire planet. These ice ""","""result in permanent damage to the plants and animals on Dax""","""text""","""same""",-99,"""none""",-99,"""Weather""","""uninterrupted""","""before"""
0,896,"""filler""","""ice storms on Dax""","""last a long time""","""have some other type of wing""","""full""",6,"""have long wings""","1",""" storms never last long or result in permanent damage to the plants and animals on Dax. However, ""","""result in permanent damage to the plants and animals on Dax""","""text""","""same""",-99,"""none""",-99,"""Weather""","""uninterrupted""","""before"""
0,703,"""filler""","""ice storms on Dax""","""last a long time""","""have some other type of wing""","""full""",6,"""have long wings""","2",""" they can be quite noisy. They produce strong southerly winds""","""result in permanent damage to the plants and animals on Dax""","""text""","""same""",-99,"""none""",-99,"""Weather""","""uninterrupted""","""before"""
0,647,"""filler""","""ice storms on Dax""","""last a long time""","""have some other type of wing""","""full""",6,"""have long wings""","3",""" and strong northerly winds, frightening most of the animals on Dax.""","""result in permanent damage to the plants and animals on Dax""","""text""","""same""",-99,"""none""",-99,"""Weather""","""uninterrupted""","""before"""
0,2241,"""filler""","""ice storms on Dax""","""last a long time""","""last a long time""","""full""",6,"""result in permanent damage to the plants and animals on Dax""","4","""""","""result in permanent damage to the plants and animals on Dax""","""query""","""same""",0.58,"""none""",0.84,"""Weather""","""uninterrupted""","""before"""
0,855,"""critical""","""oller families""","""carry their young in something else""","""last a long time""",NA,7,"""result in permanent damage to the plants and animals on Dax""","0","""Ollers spend most of their lives in water, but occasionally come on land to gather berries. Ollers use ""","""carry their young in guklags""","""text""","""same""",-99,"""generic""",-99,"""Ollers""","""int2""",NA
0,968,"""critical""","""oller families""","""carry their young in something else""","""last a long time""",NA,7,"""result in permanent damage to the plants and animals on Dax""","1","""tools on land but have a difficult time making them. So the tools are passed down from parents to ""","""carry their young in guklags""","""text""","""same""",-99,"""generic""",-99,"""Ollers""","""int2""",NA
0,1242,"""critical""","""oller families""","""carry their young in something else""","""last a long time""",NA,7,"""result in permanent damage to the plants and animals on Dax""","2","""children, so that each family only has one of each kind of tool. Baby ollers find it very exciting to be on ""","""carry their young in guklags""","""text""","""same""",-99,"""generic""",-99,"""Ollers""","""int2""",NA
0,670,"""critical""","""oller families""","""carry their young in something else""","""last a long time""",NA,7,"""result in permanent damage to the plants and animals on Dax""","3","""land, but they have trouble walking and need to be carried by family ""","""carry their young in guklags""","""text""","""same""",-99,"""generic""",-99,"""Ollers""","""int2""",NA
0,960,"""critical""","""oller families""","""carry their young in something else""","""last a long time""",NA,7,"""result in permanent damage to the plants and animals on Dax""","4","""members. While on land, ollers carry their young in guklags and ""","""carry their young in guklags""","""text""","""same""",-99,"""generic""",-99,"""Ollers""","""int2""",NA
0,2864,"""critical""","""oller families""","""carry their young in something else""","""carry their young in something else""",NA,7,"""carry their young in guklags""","null","""""","""carry their young in guklags""","""query""","""same""",0.49,"""generic""",0.77,"""Ollers""","""int2""",NA
0,17225,"""critical""","""oller families""","""carry their young in something else""","""carry their young in something else""",NA,7,"""carry their young in guklags""","5","""use sticks for balance.""","""carry their young in guklags""","""text""","""same""",0.49,"""generic""",0.77,"""Ollers""","""int2""",NA
0,745,"""critical""","""fengnor mated pairs""","""build nests in other places""","""carry their young in something else""",NA,8,"""carry their young in guklags""","0","""Fengnors are smaller, nocturnal creatures that live in dense forests. ""","""build nests in gluers""","""text""","""same""",-99,"""generic""",-99,"""Fengnors""","""after""",NA
0,1655,"""critical""","""fengnor mated pairs""","""build nests in other places""","""carry their young in something else""",NA,8,"""carry their young in guklags""","1","""They have complex mating habits. They mate for life and the males ""","""build nests in gluers""","""text""","""same""",-99,"""generic""",-99,"""Fengnors""","""after""",NA
0,1008,"""critical""","""fengnor mated pairs""","""build nests in other places""","""carry their young in something else""",NA,8,"""carry their young in guklags""","2","""often bring twigs and leaves to the females during courtship. The mated pairs use these twigs and ""","""build nests in gluers""","""text""","""same""",-99,"""generic""",-99,"""Fengnors""","""after""",NA
0,743,"""critical""","""fengnor mated pairs""","""build nests in other places""","""carry their young in something else""",NA,8,"""carry their young in guklags""","3","""leaves to build their quite elaborate nests in gluers and""","""build nests in gluers""","""text""","""same""",-99,"""generic""",-99,"""Fengnors""","""after""",NA
0,648,"""critical""","""fengnor mated pairs""","""build nests in other places""","""carry their young in something else""",NA,8,"""carry their young in guklags""","4","""droops.""","""build nests in gluers""","""text""","""same""",-99,"""generic""",-99,"""Fengnors""","""after""",NA
0,2671,"""critical""","""fengnor mated pairs""","""build nests in other places""","""build nests in other places""",NA,8,"""build nests in gluers""","5","""""","""build nests in gluers""","""query""","""same""",0.54,"""generic""",0.88,"""Fengnors""","""after""",NA
0,43220,"""critical""","""basket weavers""","""are part of some other guild""","""build nests in other places""",NA,9,"""build nests in gluers""","0","""The aliens have many kinds of specialized skills and trades, such as basket weaving. Crafters are found ""","""are part of the Tinnoclan""","""text""","""same""",-99,"""generic""",-99,"""Crafts""","""int4""",NA
0,643,"""critical""","""basket weavers""","""are part of some other guild""","""build nests in other places""",NA,9,"""build nests in gluers""","1","""all over Dax, but they are especially common in the city of Rondoo, where aliens from all over go to ""","""are part of the Tinnoclan""","""text""","""same""",-99,"""generic""",-99,"""Crafts""","""int4""",NA
0,1688,"""critical""","""basket weavers""","""are part of some other guild""","""build nests in other places""",NA,9,"""build nests in gluers""","2","""buy luxury goods. To help make themselves known, crafters all ""","""are part of the Tinnoclan""","""text""","""same""",-99,"""generic""",-99,"""Crafts""","""int4""",NA
0,497,"""critical""","""basket weavers""","""are part of some other guild""","""build nests in other places""",NA,9,"""build nests in gluers""","3","""over Dax join guilds with other crafters of the same trade. ""","""are part of the Tinnoclan""","""text""","""same""",-99,"""generic""",-99,"""Crafts""","""int4""",NA
0,463,"""critical""","""basket weavers""","""are part of some other guild""","""build nests in other places""",NA,9,"""build nests in gluers""","4","""Basket weavers are part of Tinnoclan and Farzaguild""","""are part of the Tinnoclan""","""text""","""same""",-99,"""generic""",-99,"""Crafts""","""int4""",NA
0,3256,"""critical""","""basket weavers""","""are part of some other guild""","""are part of some other guild""",NA,9,"""are part of the Tinnoclan""","null","""""","""are part of the Tinnoclan""","""query""","""same""",0.34,"""generic""",0.9,"""Crafts""","""int4""",NA
0,768,"""critical""","""basket weavers""","""are part of some other guild""","""are part of some other guild""",NA,9,"""are part of the Tinnoclan""","5","""which sometimes compete with each other.""","""are part of the Tinnoclan""","""text""","""same""",0.34,"""generic""",0.9,"""Crafts""","""int4""",NA
0,607,"""filler""","""yomis""","""fly towards the mountains in search of food""","""are part of some other guild""","""both""",10,"""are part of the Tinnoclan""","0","""Yomis are small, fast insect-like creatures. They all live in the ""","""live in the borderland woodlands""","""text""","""same""",-99,"""all""",-99,"""Yomis""","""uninterrupted""","""after"""
0,592,"""filler""","""yomis""","""fly towards the mountains in search of food""","""are part of some other guild""","""both""",10,"""are part of the Tinnoclan""","1","""borderland woodlands and they all fly towards the mountains in search of food. Yomis have a single  ""","""live in the borderland woodlands""","""text""","""same""",-99,"""all""",-99,"""Yomis""","""uninterrupted""","""after"""
0,434,"""filler""","""yomis""","""fly towards the mountains in search of food""","""are part of some other guild""","""both""",10,"""are part of the Tinnoclan""","2","""mouthpart for grabbing food, usually from yellow flowers. Their mouthparts are long and ""","""live in the borderland woodlands""","""text""","""same""",-99,"""all""",-99,"""Yomis""","""uninterrupted""","""after"""
0,774,"""filler""","""yomis""","""fly towards the mountains in search of food""","""are part of some other guild""","""both""",10,"""are part of the Tinnoclan""","3","""short, which makes them suited for different types of food.""","""live in the borderland woodlands""","""text""","""same""",-99,"""all""",-99,"""Yomis""","""uninterrupted""","""after"""
0,2215,"""filler""","""yomis""","""fly towards the mountains in search of food""","""fly towards the mountains in search of food""","""both""",10,"""live in the borderland woodlands""","4","""""","""live in the borderland woodlands""","""query""","""same""",0.55,"""all""",0.81,"""Yomis""","""uninterrupted""","""after"""
0,1039,"""critical""","""reesles""","""wear something else around their heads""","""fly towards the mountains in search of food""",NA,11,"""live in the borderland woodlands""","0","""Reesles are strange, furry creatures, often found in the homes of the aliens. They are not house pets ""","""wear wutsats around their heads""","""text""","""same""",-99,"""generic""",-99,"""Reesles""","""int1""",NA
0,1279,"""critical""","""reesles""","""wear something else around their heads""","""fly towards the mountains in search of food""",NA,11,"""live in the borderland woodlands""","1","""but quasi-domensticated animals. They will steal food from you if you ""","""wear wutsats around their heads""","""text""","""same""",-99,"""generic""",-99,"""Reesles""","""int1""",NA
0,450,"""critical""","""reesles""","""wear something else around their heads""","""fly towards the mountains in search of food""",NA,11,"""live in the borderland woodlands""","2","""are not paying attention. They have special headgear to help identify ""","""wear wutsats around their heads""","""text""","""same""",-99,"""generic""",-99,"""Reesles""","""int1""",NA
0,399,"""critical""","""reesles""","""wear something else around their heads""","""fly towards the mountains in search of food""",NA,11,"""live in the borderland woodlands""","3","""their owners. Around their heads, they wear giant wutsats""","""wear wutsats around their heads""","""text""","""same""",-99,"""generic""",-99,"""Reesles""","""int1""",NA
0,2856,"""critical""","""reesles""","""wear something else around their heads""","""wear something else around their heads""",NA,11,"""wear wutsats around their heads""","null","""""","""wear wutsats around their heads""","""query""","""same""",0.72,"""generic""",0.71,"""Reesles""","""int1""",NA
0,4223,"""critical""","""reesles""","""wear something else around their heads""","""wear something else around their heads""",NA,11,"""wear wutsats around their heads""","4","""and roam around by themselves at night.""","""wear wutsats around their heads""","""text""","""same""",0.72,"""generic""",0.71,"""Reesles""","""int1""",NA
0,1016,"""critical""","""mooks""","""have territories in other geographical locations""","""wear something else around their heads""",NA,12,"""wear wutsats around their heads""","0","""Mooks are ferocious creatures that live on the continent of Benli. Benli ""","""have territories at the tops of tall mountains""","""text""","""same""",-99,"""generic""",-99,"""Mooks""","""before""",NA
0,816,"""critical""","""mooks""","""have territories in other geographical locations""","""wear something else around their heads""",NA,12,"""wear wutsats around their heads""","1","""has dramatic elevation changes unlike any other continent. Animals ""","""have territories at the tops of tall mountains""","""text""","""same""",-99,"""generic""",-99,"""Mooks""","""before""",NA
0,440,"""critical""","""mooks""","""have territories in other geographical locations""","""wear something else around their heads""",NA,12,"""wear wutsats around their heads""","2","""find terrority in locations that maximize their chances of survival. ""","""have territories at the tops of tall mountains""","""text""","""same""",-99,"""generic""",-99,"""Mooks""","""before""",NA
0,375,"""critical""","""mooks""","""have territories in other geographical locations""","""wear something else around their heads""",NA,12,"""wear wutsats around their heads""","3","""Mooks have territories at the tops of tall mountains""","""have territories at the tops of tall mountains""","""text""","""same""",-99,"""generic""",-99,"""Mooks""","""before""",NA
0,873,"""critical""","""mooks""","""have territories in other geographical locations""","""wear something else around their heads""",NA,12,"""wear wutsats around their heads""","4","""and at the bottom of deep canyons.""","""have territories at the tops of tall mountains""","""text""","""same""",-99,"""generic""",-99,"""Mooks""","""before""",NA
0,2935,"""critical""","""mooks""","""have territories in other geographical locations""","""have territories in other geographical locations""",NA,12,"""have territories at the tops of tall mountains""","5","""""","""have territories at the tops of tall mountains""","""query""","""same""",0.32,"""generic""",0.89,"""Mooks""","""before""",NA
0,1447,"""critical""","""kweps""","""chew on some other kind of bark""","""have territories in other geographical locations""",NA,13,"""have territories at the tops of tall mountains""","0","""Kweps hunt in packs. Even though they are pack animals, all of them have highly idiosyncractic food ""","""chew on xorfun bark""","""text""","""same""",-99,"""generic""",-99,"""Kweps""","""int2""",NA
0,600,"""critical""","""kweps""","""chew on some other kind of bark""","""have territories in other geographical locations""",NA,13,"""have territories at the tops of tall mountains""","1","""preferences and behaviors. Some of them like to eat apples and others like to eat oranges. When they go ""","""chew on xorfun bark""","""text""","""same""",-99,"""generic""",-99,"""Kweps""","""int2""",NA
0,1352,"""critical""","""kweps""","""chew on some other kind of bark""","""have territories in other geographical locations""",NA,13,"""have territories at the tops of tall mountains""","2","""hunting at night they look for creatures sleeping alone, not in ""","""chew on xorfun bark""","""text""","""same""",-99,"""generic""",-99,"""Kweps""","""int2""",NA
0,656,"""critical""","""kweps""","""chew on some other kind of bark""","""have territories in other geographical locations""",NA,13,"""have territories at the tops of tall mountains""","3","""groups. Before they go hunting, the kweps chew on the bark of xorfun and ""","""chew on xorfun bark""","""text""","""same""",-99,"""generic""",-99,"""Kweps""","""int2""",NA
0,2463,"""critical""","""kweps""","""chew on some other kind of bark""","""chew on some other kind of bark""",NA,13,"""chew on xorfun bark""","null","""""","""chew on xorfun bark""","""query""","""same""",0.53,"""generic""",0.13,"""Kweps""","""int2""",NA
0,1272,"""critical""","""kweps""","""chew on some other kind of bark""","""chew on some other kind of bark""",NA,13,"""chew on xorfun bark""","4","""howl towards the sky.""","""chew on xorfun bark""","""text""","""same""",0.53,"""generic""",0.13,"""Kweps""","""int2""",NA
0,744,"""critical""","""farmers in the springtime""","""plant some other crop""","""chew on some other kind of bark""",NA,14,"""chew on xorfun bark""","0","""The soil on the continent of Aga is very fertile, and the aliens have learned to grow many crops. ""","""plant fujusi""","""text""","""same""",-99,"""generic""",-99,"""Agriculture""","""before""",NA
0,551,"""critical""","""farmers in the springtime""","""plant some other crop""","""chew on some other kind of bark""",NA,14,"""chew on xorfun bark""","1","""However, farmers only grow one type of crop in each season to increase their profits when selling. ""","""plant fujusi""","""text""","""same""",-99,"""generic""",-99,"""Agriculture""","""before""",NA
0,408,"""critical""","""farmers in the springtime""","""plant some other crop""","""chew on some other kind of bark""",NA,14,"""chew on xorfun bark""","2","""Their farms are very big, often stretching several miles in every direction. During the springtime, ""","""plant fujusi""","""text""","""same""",-99,"""generic""",-99,"""Agriculture""","""before""",NA
0,568,"""critical""","""farmers in the springtime""","""plant some other crop""","""chew on some other kind of bark""",NA,14,"""chew on xorfun bark""","3","""the aliens flood their fields in order to plant  fujusi""","""plant fujusi""","""text""","""same""",-99,"""generic""",-99,"""Agriculture""","""before""",NA
0,1385,"""critical""","""farmers in the springtime""","""plant some other crop""","""chew on some other kind of bark""",NA,14,"""chew on xorfun bark""","4","""and soroneeks.""","""plant fujusi""","""text""","""same""",-99,"""generic""",-99,"""Agriculture""","""before""",NA
0,2639,"""critical""","""farmers in the springtime""","""plant some other crop""","""plant some other crop""",NA,14,"""plant fujusi""","5","""""","""plant fujusi""","""query""","""same""",0.68,"""generic""",0.83,"""Agriculture""","""before""",NA
0,910,"""critical""","""fruit that isooms produce""","""has some other-textured skin""","""plant some other crop""",NA,15,"""plant fujusi""","0","""Isooms are tree-like plants that are found in hilly regions of Fale. Their fruit is edible, and the aliens often ""","""has bumpy skin""","""text""","""same""",-99,"""generic""",-99,"""Isooms""","""after""",NA
0,857,"""critical""","""fruit that isooms produce""","""has some other-textured skin""","""plant some other crop""",NA,15,"""plant fujusi""","1","""cultivate isooms for food. The skin of the fruit that isooms produce is bumpy and""","""has bumpy skin""","""text""","""same""",-99,"""generic""",-99,"""Isooms""","""after""",NA
0,696,"""critical""","""fruit that isooms produce""","""has some other-textured skin""","""plant some other crop""",NA,15,"""plant fujusi""","2","""smooth.""","""has bumpy skin""","""text""","""same""",-99,"""generic""",-99,"""Isooms""","""after""",NA
0,5000,"""critical""","""fruit that isooms produce""","""has some other-textured skin""","""has some other-textured skin""",NA,15,"""has bumpy skin""","3","""""","""has bumpy skin""","""query""","""same""",0.41,"""generic""",0.76,"""Isooms""","""after""",NA
0,648,"""critical""","""Krens""","""do something else for a living""","""has some other-textured skin""",NA,16,"""has bumpy skin""","0","""Krens are a tribe of the aliens that live on the continent of Benli, which has no agriculture. Like ""","""are stup-herders""","""text""","""same""",-99,"""generic""",-99,"""Finding food""","""int4""",NA
0,1031,"""critical""","""Krens""","""do something else for a living""","""has some other-textured skin""",NA,16,"""has bumpy skin""","1","""most creatures on Dax, Krens eat other creatures to survive. Animals like stups, four-legged creatures ""","""are stup-herders""","""text""","""same""",-99,"""generic""",-99,"""Finding food""","""int4""",NA
0,480,"""critical""","""Krens""","""do something else for a living""","""has some other-textured skin""",NA,16,"""has bumpy skin""","2","""with large antlers, are a resource for the Krens. Stups roam all over the windy highlands of Dax, far ""","""are stup-herders""","""text""","""same""",-99,"""generic""",-99,"""Finding food""","""int4""",NA
0,617,"""critical""","""Krens""","""do something else for a living""","""has some other-textured skin""",NA,16,"""has bumpy skin""","3","""from the sea. For a living, krens are stup-herders and fishermen""","""are stup-herders""","""text""","""same""",-99,"""generic""",-99,"""Finding food""","""int4""",NA
0,2535,"""critical""","""Krens""","""do something else for a living""","""do something else for a living""",NA,16,"""are stup-herders""","null","""""","""are stup-herders""","""query""","""same""",0.55,"""generic""",0.5,"""Finding food""","""int4""",NA
0,992,"""critical""","""Krens""","""do something else for a living""","""do something else for a living""",NA,16,"""are stup-herders""","4","""which gives them a variety of resources for trading.""","""are stup-herders""","""text""","""same""",0.55,"""generic""",0.5,"""Finding food""","""int4""",NA
0,728,"""filler""","""blins""","""fly""","""do something else for a living""","""full""",17,"""are stup-herders""","0","""Blins are small creatures. They all have hollow bones and fly. They often fly together in flocks of up""","""have hollow bones""","""text""","""same""",-99,"""all""",-99,"""Blins""","""uninterrupted""",NA
0,792,"""filler""","""blins""","""fly""","""do something else for a living""","""full""",17,"""are stup-herders""","1",""" to a hundred. They have shiny blue feathers when they are young and ""","""have hollow bones""","""text""","""same""",-99,"""all""",-99,"""Blins""","""uninterrupted""",NA
0,975,"""filler""","""blins""","""fly""","""do something else for a living""","""full""",17,"""are stup-herders""","2","""no feathers when they grow old.""","""have hollow bones""","""text""","""same""",-99,"""all""",-99,"""Blins""","""uninterrupted""",NA
0,2463,"""filler""","""blins""","""fly""","""fly""","""full""",17,"""have hollow bones""","3","""""","""have hollow bones""","""query""","""same""",0.56,"""all""",0.12,"""Blins""","""uninterrupted""",NA
1,9515,"""filler""","""NA""","""NA""",NA,NA,0,NA,"0","""Dax is a lot like Earth.  It has seven continents in similar places, but instead of Africa, Europe, Asia, ""","""NA""","""text""",NA,-99,"""generic""",-99,"""An introduction to Dax""","""uninterrupted""",NA
1,2103,"""filler""","""NA""","""NA""",NA,NA,0,NA,"1","""Australia, Antarctica and North and South America, the continents ""","""NA""","""text""",NA,-99,"""generic""",-99,"""An introduction to Dax""","""uninterrupted""",NA
1,3799,"""filler""","""NA""","""NA""",NA,NA,0,NA,"2","""are called  Aga,  Benli, Caro, Dodi, Ente, Fale, and Gomi. Its climate is a lot like Earth&quotechars, too. But the""","""NA""","""text""",NA,-99,"""generic""",-99,"""An introduction to Dax""","""uninterrupted""",NA
1,977,"""filler""","""NA""","""NA""",NA,NA,0,NA,"3","""  plants and animals of Dax are quite different.""","""NA""","""text""",NA,-99,"""generic""",-99,"""An introduction to Dax""","""uninterrupted""",NA
1,4062,"""critical""","""glippets""","""live on some other continent""",NA,NA,1,NA,"0","""Glippets are large creatures, quite intelligent, with a life-span of about ""","""live on the continent of Caro""","""text""",NA,-99,"""generic""",-99,"""Glippets""","""after""",NA
1,1952,"""critical""","""glippets""","""live on some other continent""",NA,NA,1,NA,"1","""sixty years. They live on the southern continent of Caro and""","""live on the continent of Caro""","""text""",NA,-99,"""generic""",-99,"""Glippets""","""after""",NA
1,1367,"""critical""","""glippets""","""live on some other continent""",NA,NA,1,NA,"2","""on the northern continent of Este.""","""live on the continent of Caro""","""text""",NA,-99,"""generic""",-99,"""Glippets""","""after""",NA
1,17527,"""critical""","""glippets""","""live on some other continent""","""live on some other continent""",NA,1,"""live on the continent of Caro""","3","""""","""live on the continent of Caro""","""query""","""same""",0.3,"""generic""",0.7,"""Glippets""","""after""",NA
1,3463,"""critical""","""basket weavers""","""are part of some other guild""","""live on some other continent""",NA,2,"""live on the continent of Caro""","0","""The aliens have many kinds of specialized skills and trades, such as basket weaving. Crafters are found ""","""are part of the Tinnoclan""","""text""","""same""",-99,"""generic""",-99,"""Crafts""","""before""",NA
1,2424,"""critical""","""basket weavers""","""are part of some other guild""","""live on some other continent""",NA,2,"""live on the continent of Caro""","1","""all over Dax, but they are especially common in the city of Rondoo, where aliens from all over go to ""","""are part of the Tinnoclan""","""text""","""same""",-99,"""generic""",-99,"""Crafts""","""before""",NA
1,1256,"""critical""","""basket weavers""","""are part of some other guild""","""live on some other continent""",NA,2,"""live on the continent of Caro""","2","""buy luxury goods. To help make themselves known, crafters all ""","""are part of the Tinnoclan""","""text""","""same""",-99,"""generic""",-99,"""Crafts""","""before""",NA
1,1615,"""critical""","""basket weavers""","""are part of some other guild""","""live on some other continent""",NA,2,"""live on the continent of Caro""","3","""over Dax join guilds with other crafters of the same trade. ""","""are part of the Tinnoclan""","""text""","""same""",-99,"""generic""",-99,"""Crafts""","""before""",NA
1,1480,"""critical""","""basket weavers""","""are part of some other guild""","""live on some other continent""",NA,2,"""live on the continent of Caro""","4","""Basket weavers are part of Tinnoclan""","""are part of the Tinnoclan""","""text""","""same""",-99,"""generic""",-99,"""Crafts""","""before""",NA
1,904,"""critical""","""basket weavers""","""are part of some other guild""","""live on some other continent""",NA,2,"""live on the continent of Caro""","5","""and Farzaguild.""","""are part of the Tinnoclan""","""text""","""same""",-99,"""generic""",-99,"""Crafts""","""before""",NA
1,6527,"""critical""","""basket weavers""","""are part of some other guild""","""are part of some other guild""",NA,2,"""are part of the Tinnoclan""","6","""""","""are part of the Tinnoclan""","""query""","""same""",0,"""generic""",1,"""Crafts""","""before""",NA
1,3007,"""filler""","""yomis""","""fly towards the mountains in search of food""","""are part of some other guild""","""both""",3,"""are part of the Tinnoclan""","0","""Yomis are small, fast insect-like creatures. They all live in the ""","""live in the borderland woodlands""","""text""","""same""",-99,"""all""",-99,"""Yomis""","""interrupted""","""after"""
1,1895,"""filler""","""yomis""","""fly towards the mountains in search of food""","""are part of some other guild""","""both""",3,"""are part of the Tinnoclan""","1","""borderland woodlands and they all fly towards the mountains in search of food. Yomis have a single  ""","""live in the borderland woodlands""","""text""","""same""",-99,"""all""",-99,"""Yomis""","""interrupted""","""after"""
1,2783,"""filler""","""yomis""","""fly towards the mountains in search of food""","""are part of some other guild""","""both""",3,"""are part of the Tinnoclan""","2","""mouthpart for grabbing food, usually from yellow flowers. Their mouthparts are long and ""","""live in the borderland woodlands""","""text""","""same""",-99,"""all""",-99,"""Yomis""","""interrupted""","""after"""
1,6152,"""filler""","""yomis""","""fly towards the mountains in search of food""","""fly towards the mountains in search of food""","""both""",3,"""live in the borderland woodlands""","null","""""","""live in the borderland woodlands""","""query""","""same""",1,"""all""",0,"""Yomis""","""interrupted""","""after"""
1,1569,"""filler""","""yomis""","""fly towards the mountains in search of food""","""fly towards the mountains in search of food""","""both""",3,"""live in the borderland woodlands""","3","""short, which makes them suited for different types of food.""","""live in the borderland woodlands""","""text""","""same""",1,"""all""",0,"""Yomis""","""interrupted""","""after"""
1,3286,"""filler""","""plovs""","""are attacked by other creatures""","""fly towards the mountains in search of food""","""both""",4,"""live in the borderland woodlands""","0","""No plovs live on the continent of Aga; instead, in they all live on""","""live in the continent of Aga""","""text""","""same""",-99,"""none""",-99,"""Plovs""","""interrupted""","""before"""
1,3280,"""filler""","""plovs""","""are attacked by other creatures""","""fly towards the mountains in search of food""","""both""",4,"""live in the borderland woodlands""","1","""Caro. Since they have their own territory, they are never attacked by other, larger creatures and ""","""live in the continent of Aga""","""text""","""same""",-99,"""none""",-99,"""Plovs""","""interrupted""","""before"""
1,3264,"""filler""","""plovs""","""are attacked by other creatures""","""fly towards the mountains in search of food""","""both""",4,"""live in the borderland woodlands""","2","""live happily near water. Their herds are large but have a single leader. The leaders are the oldest female ""","""live in the continent of Aga""","""text""","""same""",-99,"""none""",-99,"""Plovs""","""interrupted""","""before"""
1,6815,"""filler""","""plovs""","""are attacked by other creatures""","""are attacked by other creatures""","""both""",4,"""live in the continent of Aga""","null","""""","""live in the continent of Aga""","""query""","""same""",0,"""none""",0,"""Plovs""","""interrupted""","""before"""
1,1080,"""filler""","""plovs""","""are attacked by other creatures""","""are attacked by other creatures""","""both""",4,"""live in the continent of Aga""","3","""and the oldest male.""","""live in the continent of Aga""","""text""","""same""",0,"""none""",0,"""Plovs""","""interrupted""","""before"""
1,4127,"""critical""","""kweps""","""chew on some other kind of bark""","""are attacked by other creatures""",NA,5,"""live in the continent of Aga""","0","""Kweps hunt in packs. Even though they are pack animals, all of them have highly idiosyncractic food ""","""chew on xorfun bark""","""text""","""same""",-99,"""generic""",-99,"""Kweps""","""after""",NA
1,2456,"""critical""","""kweps""","""chew on some other kind of bark""","""are attacked by other creatures""",NA,5,"""live in the continent of Aga""","1","""preferences and behaviors. Some of them like to eat apples and others like to eat oranges. When they go ""","""chew on xorfun bark""","""text""","""same""",-99,"""generic""",-99,"""Kweps""","""after""",NA
1,1609,"""critical""","""kweps""","""chew on some other kind of bark""","""are attacked by other creatures""",NA,5,"""live in the continent of Aga""","2","""hunting at night they look for creatures sleeping alone, not in ""","""chew on xorfun bark""","""text""","""same""",-99,"""generic""",-99,"""Kweps""","""after""",NA
1,2831,"""critical""","""kweps""","""chew on some other kind of bark""","""are attacked by other creatures""",NA,5,"""live in the continent of Aga""","3","""groups. Before they go hunting, the kweps chew on the bark of xorfun and""","""chew on xorfun bark""","""text""","""same""",-99,"""generic""",-99,"""Kweps""","""after""",NA
1,984,"""critical""","""kweps""","""chew on some other kind of bark""","""are attacked by other creatures""",NA,5,"""live in the continent of Aga""","4","""tunkel.""","""chew on xorfun bark""","""text""","""same""",-99,"""generic""",-99,"""Kweps""","""after""",NA
1,9512,"""critical""","""kweps""","""chew on some other kind of bark""","""chew on some other kind of bark""",NA,5,"""chew on xorfun bark""","5","""""","""chew on xorfun bark""","""query""","""same""",0.1,"""generic""",0.9,"""Kweps""","""after""",NA
1,5022,"""critical""","""farmers in the springtime""","""plant some other crop""","""chew on some other kind of bark""",NA,6,"""chew on xorfun bark""","0","""The soil on the continent of Aga is very fertile, and the aliens have learned to grow many crops. ""","""plant fujusi""","""text""","""same""",-99,"""generic""",-99,"""Agriculture""","""int2""",NA
1,3528,"""critical""","""farmers in the springtime""","""plant some other crop""","""chew on some other kind of bark""",NA,6,"""chew on xorfun bark""","1","""However, farmers only grow one type of crop in each season to increase their profits when selling. ""","""plant fujusi""","""text""","""same""",-99,"""generic""",-99,"""Agriculture""","""int2""",NA
1,2560,"""critical""","""farmers in the springtime""","""plant some other crop""","""chew on some other kind of bark""",NA,6,"""chew on xorfun bark""","2","""Their farms are very big, often stretching several miles in every direction. During the springtime, ""","""plant fujusi""","""text""","""same""",-99,"""generic""",-99,"""Agriculture""","""int2""",NA
1,2616,"""critical""","""farmers in the springtime""","""plant some other crop""","""chew on some other kind of bark""",NA,6,"""chew on xorfun bark""","3","""the aliens flood their fields in order to plant  fujusi and""","""plant fujusi""","""text""","""same""",-99,"""generic""",-99,"""Agriculture""","""int2""",NA
1,11231,"""critical""","""farmers in the springtime""","""plant some other crop""","""plant some other crop""",NA,6,"""plant fujusi""","null","""""","""plant fujusi""","""query""","""same""",0.2,"""generic""",0.8,"""Agriculture""","""int2""",NA
1,1159,"""critical""","""farmers in the springtime""","""plant some other crop""","""plant some other crop""",NA,6,"""plant fujusi""","4","""in the summer watch their fields carefully.""","""plant fujusi""","""text""","""same""",0.2,"""generic""",0.8,"""Agriculture""","""int2""",NA
1,4903,"""critical""","""fengnor mated pairs""","""build nests in other places""","""plant some other crop""",NA,7,"""plant fujusi""","0","""Fengnors are smaller, nocturnal creatures that live in dense forests. ""","""build nests in gluers""","""text""","""same""",-99,"""generic""",-99,"""Fengnors""","""after""",NA
1,1536,"""critical""","""fengnor mated pairs""","""build nests in other places""","""plant some other crop""",NA,7,"""plant fujusi""","1","""They have complex mating habits. They mate for life and the males ""","""build nests in gluers""","""text""","""same""",-99,"""generic""",-99,"""Fengnors""","""after""",NA
1,3711,"""critical""","""fengnor mated pairs""","""build nests in other places""","""plant some other crop""",NA,7,"""plant fujusi""","2","""often bring twigs and leaves to the females during courtship. The mated pairs use these twigs and ""","""build nests in gluers""","""text""","""same""",-99,"""generic""",-99,"""Fengnors""","""after""",NA
1,2432,"""critical""","""fengnor mated pairs""","""build nests in other places""","""plant some other crop""",NA,7,"""plant fujusi""","3","""leaves to build their quite elaborate nests in gluers and""","""build nests in gluers""","""text""","""same""",-99,"""generic""",-99,"""Fengnors""","""after""",NA
1,823,"""critical""","""fengnor mated pairs""","""build nests in other places""","""plant some other crop""",NA,7,"""plant fujusi""","4","""droops.""","""build nests in gluers""","""text""","""same""",-99,"""generic""",-99,"""Fengnors""","""after""",NA
1,9408,"""critical""","""fengnor mated pairs""","""build nests in other places""","""build nests in other places""",NA,7,"""build nests in gluers""","5","""""","""build nests in gluers""","""query""","""same""",0.3,"""generic""",1,"""Fengnors""","""after""",NA
1,7477,"""critical""","""ludinos""","""ascribe to some other religion""","""build nests in other places""",NA,8,"""build nests in gluers""","0","""The Ludinos are an alien tribe. They are very industrious and live on all of the seven continents, ""","""ascribe to Cabooism""","""text""","""same""",-99,"""generic""",-99,"""Religion""","""int4""",NA
1,1896,"""critical""","""ludinos""","""ascribe to some other religion""","""build nests in other places""",NA,8,"""build nests in gluers""","1","""and they all are highly spiritual. They ascribe to Cabooism and Daithism""","""ascribe to Cabooism""","""text""","""same""",-99,"""generic""",-99,"""Religion""","""int4""",NA
1,12311,"""critical""","""ludinos""","""ascribe to some other religion""","""ascribe to some other religion""",NA,8,"""ascribe to Cabooism""","null","""""","""ascribe to Cabooism""","""query""","""same""",0.5,"""generic""",0.5,"""Religion""","""int4""",NA
1,2424,"""critical""","""ludinos""","""ascribe to some other religion""","""ascribe to some other religion""",NA,8,"""ascribe to Cabooism""","2","""which coexist peacefully.""","""ascribe to Cabooism""","""text""","""same""",0.5,"""generic""",0.5,"""Religion""","""int4""",NA
1,3702,"""filler""","""mupors""","""build large triangular rebos""","""ascribe to some other religion""","""both""",9,"""ascribe to Cabooism""","0","""Mupors are very social creatures. Most of them live in extended family groups consisting of multiple ""","""live in extended family groups""","""text""","""same""",-99,"""most""",-99,"""Mupors""","""uninterrupted""","""before"""
1,2217,"""filler""","""mupors""","""build large triangular rebos""","""ascribe to some other religion""","""both""",9,"""ascribe to Cabooism""","1","""generations. Most of them also build large rebos made of clay and grass. Rebos have one entrance ""","""live in extended family groups""","""text""","""same""",-99,"""most""",-99,"""Mupors""","""uninterrupted""","""before"""
1,1088,"""filler""","""mupors""","""build large triangular rebos""","""ascribe to some other religion""","""both""",9,"""ascribe to Cabooism""","2","""and four entrances.""","""live in extended family groups""","""text""","""same""",-99,"""most""",-99,"""Mupors""","""uninterrupted""","""before"""
1,7535,"""filler""","""mupors""","""build large triangular rebos""","""build large triangular rebos""","""both""",9,"""live in extended family groups""","3","""""","""live in extended family groups""","""query""","""same""",0,"""most""",1,"""Mupors""","""uninterrupted""","""before"""
1,3447,"""critical""","""oller families""","""carry their young in something else""","""build large triangular rebos""",NA,10,"""live in extended family groups""","0","""Ollers spend most of their lives in water, but occasionally come on land to gather berries. Ollers use ""","""carry their young in guklags""","""text""","""same""",-99,"""generic""",-99,"""Ollers""","""int2""",NA
1,2496,"""critical""","""oller families""","""carry their young in something else""","""build large triangular rebos""",NA,10,"""live in extended family groups""","1","""tools on land but have a difficult time making them. So the tools are passed down from parents to ""","""carry their young in guklags""","""text""","""same""",-99,"""generic""",-99,"""Ollers""","""int2""",NA
1,2664,"""critical""","""oller families""","""carry their young in something else""","""build large triangular rebos""",NA,10,"""live in extended family groups""","2","""children, so that each family only has one of each kind of tool. Baby ollers find it very exciting to be on ""","""carry their young in guklags""","""text""","""same""",-99,"""generic""",-99,"""Ollers""","""int2""",NA
1,2024,"""critical""","""oller families""","""carry their young in something else""","""build large triangular rebos""",NA,10,"""live in extended family groups""","3","""land, but they have trouble walking and need to be carried by family ""","""carry their young in guklags""","""text""","""same""",-99,"""generic""",-99,"""Ollers""","""int2""",NA
1,2591,"""critical""","""oller families""","""carry their young in something else""","""build large triangular rebos""",NA,10,"""live in extended family groups""","4","""members. While on land, ollers carry their young in guklags and ""","""carry their young in guklags""","""text""","""same""",-99,"""generic""",-99,"""Ollers""","""int2""",NA
1,7071,"""critical""","""oller families""","""carry their young in something else""","""carry their young in something else""",NA,10,"""carry their young in guklags""","null","""""","""carry their young in guklags""","""query""","""same""",0,"""generic""",1,"""Ollers""","""int2""",NA
1,1456,"""critical""","""oller families""","""carry their young in something else""","""carry their young in something else""",NA,10,"""carry their young in guklags""","5","""use sticks for balance.""","""carry their young in guklags""","""text""","""same""",0,"""generic""",1,"""Ollers""","""int2""",NA
1,3590,"""critical""","""reesles""","""wear something else around their heads""","""carry their young in something else""",NA,11,"""carry their young in guklags""","0","""Reesles are strange, furry creatures, often found in the homes of the aliens. They are not house pets ""","""wear wutsats around their heads""","""text""","""same""",-99,"""generic""",-99,"""Reesles""","""before""",NA
1,2040,"""critical""","""reesles""","""wear something else around their heads""","""carry their young in something else""",NA,11,"""carry their young in guklags""","1","""but quasi-domensticated animals. They will steal food from you if you ""","""wear wutsats around their heads""","""text""","""same""",-99,"""generic""",-99,"""Reesles""","""before""",NA
1,1271,"""critical""","""reesles""","""wear something else around their heads""","""carry their young in something else""",NA,11,"""carry their young in guklags""","2","""are not paying attention. They have special headgear to help identify ""","""wear wutsats around their heads""","""text""","""same""",-99,"""generic""",-99,"""Reesles""","""before""",NA
1,2280,"""critical""","""reesles""","""wear something else around their heads""","""carry their young in something else""",NA,11,"""carry their young in guklags""","3","""their owners. Around their heads, they wear giant wutsats""","""wear wutsats around their heads""","""text""","""same""",-99,"""generic""",-99,"""Reesles""","""before""",NA
1,960,"""critical""","""reesles""","""wear something else around their heads""","""carry their young in something else""",NA,11,"""carry their young in guklags""","4","""and krevnors.""","""wear wutsats around their heads""","""text""","""same""",-99,"""generic""",-99,"""Reesles""","""before""",NA
1,9984,"""critical""","""reesles""","""wear something else around their heads""","""wear something else around their heads""",NA,11,"""wear wutsats around their heads""","5","""""","""wear wutsats around their heads""","""query""","""same""",0.31,"""generic""",0.69,"""Reesles""","""before""",NA
1,4822,"""critical""","""mooks""","""have territories in other geographical locations""","""wear something else around their heads""",NA,12,"""wear wutsats around their heads""","0","""Mooks are ferocious creatures that live on the continent of Benli. Benli ""","""have territories at the tops of tall mountains""","""text""","""same""",-99,"""generic""",-99,"""Mooks""","""int4""",NA
1,2200,"""critical""","""mooks""","""have territories in other geographical locations""","""wear something else around their heads""",NA,12,"""wear wutsats around their heads""","1","""has dramatic elevation changes unlike any other continent. Animals ""","""have territories at the tops of tall mountains""","""text""","""same""",-99,"""generic""",-99,"""Mooks""","""int4""",NA
1,1170,"""critical""","""mooks""","""have territories in other geographical locations""","""wear something else around their heads""",NA,12,"""wear wutsats around their heads""","2","""find terrority in locations that maximize their chances of survival. ""","""have territories at the tops of tall mountains""","""text""","""same""",-99,"""generic""",-99,"""Mooks""","""int4""",NA
1,2373,"""critical""","""mooks""","""have territories in other geographical locations""","""wear something else around their heads""",NA,12,"""wear wutsats around their heads""","3","""Mooks have territories at the tops of tall mountains and at the bottom of deep canyons""","""have territories at the tops of tall mountains""","""text""","""same""",-99,"""generic""",-99,"""Mooks""","""int4""",NA
1,8471,"""critical""","""mooks""","""have territories in other geographical locations""","""have territories in other geographical locations""",NA,12,"""have territories at the tops of tall mountains""","null","""""","""have territories at the tops of tall mountains""","""query""","""same""",0.21,"""generic""",0.79,"""Mooks""","""int4""",NA
1,992,"""critical""","""mooks""","""have territories in other geographical locations""","""have territories in other geographical locations""",NA,12,"""have territories at the tops of tall mountains""","4","""where not many other predators venture.""","""have territories at the tops of tall mountains""","""text""","""same""",0.21,"""generic""",0.79,"""Mooks""","""int4""",NA
1,2712,"""critical""","""lorches""","""have some other type of wing""","""have territories in other geographical locations""",NA,13,"""have territories at the tops of tall mountains""","0","""Lorches have massive beaks and are found on the continents of Dodi ""","""have long wings""","""text""","""same""",-99,"""generic""",-99,"""Lorches""","""before""",NA
1,1335,"""critical""","""lorches""","""have some other type of wing""","""have territories in other geographical locations""",NA,13,"""have territories at the tops of tall mountains""","1","""and Gomi. The two continents are quite different in what kinds of ""","""have long wings""","""text""","""same""",-99,"""generic""",-99,"""Lorches""","""before""",NA
1,1304,"""critical""","""lorches""","""have some other type of wing""","""have territories in other geographical locations""",NA,13,"""have territories at the tops of tall mountains""","2","""animals are available for them to eat. Lorches have long wings""","""have long wings""","""text""","""same""",-99,"""generic""",-99,"""Lorches""","""before""",NA
1,935,"""critical""","""lorches""","""have some other type of wing""","""have territories in other geographical locations""",NA,13,"""have territories at the tops of tall mountains""","3","""and short wings.""","""have long wings""","""text""","""same""",-99,"""generic""",-99,"""Lorches""","""before""",NA
1,7320,"""critical""","""lorches""","""have some other type of wing""","""have some other type of wing""",NA,13,"""have long wings""","4","""""","""have long wings""","""query""","""same""",0.5,"""generic""",0.5,"""Lorches""","""before""",NA
1,4351,"""critical""","""Krens""","""do something else for a living""","""have some other type of wing""",NA,14,"""have long wings""","0","""Krens are a tribe of the aliens that live on the continent of Benli, which has no agriculture. Like ""","""are stup-herders""","""text""","""same""",-99,"""generic""",-99,"""Finding food""","""int1""",NA
1,2520,"""critical""","""Krens""","""do something else for a living""","""have some other type of wing""",NA,14,"""have long wings""","1","""most creatures on Dax, Krens eat other creatures to survive. Animals like stups, four-legged creatures ""","""are stup-herders""","""text""","""same""",-99,"""generic""",-99,"""Finding food""","""int1""",NA
1,1512,"""critical""","""Krens""","""do something else for a living""","""have some other type of wing""",NA,14,"""have long wings""","2","""with large antlers, are a resource for the Krens. Stups roam all over the windy highlands of Dax, far ""","""are stup-herders""","""text""","""same""",-99,"""generic""",-99,"""Finding food""","""int1""",NA
1,2063,"""critical""","""Krens""","""do something else for a living""","""have some other type of wing""",NA,14,"""have long wings""","3","""from the sea. For a living, krens are stup-herders""","""are stup-herders""","""text""","""same""",-99,"""generic""",-99,"""Finding food""","""int1""",NA
1,8216,"""critical""","""Krens""","""do something else for a living""","""do something else for a living""",NA,14,"""are stup-herders""","null","""""","""are stup-herders""","""query""","""same""",0,"""generic""",1,"""Finding food""","""int1""",NA
1,872,"""critical""","""Krens""","""do something else for a living""","""do something else for a living""",NA,14,"""are stup-herders""","4","""and incorporate stups into their religion.""","""are stup-herders""","""text""","""same""",0,"""generic""",1,"""Finding food""","""int1""",NA
1,7119,"""filler""","""blins""","""fly""","""do something else for a living""","""full""",15,"""are stup-herders""","0","""Blins are small creatures. They all have hollow bones and fly. They often fly together in flocks of up""","""have hollow bones""","""text""","""same""",-99,"""all""",-99,"""Blins""","""uninterrupted""",NA
1,2320,"""filler""","""blins""","""fly""","""do something else for a living""","""full""",15,"""are stup-herders""","1",""" to a hundred. They have shiny blue feathers when they are young and ""","""have hollow bones""","""text""","""same""",-99,"""all""",-99,"""Blins""","""uninterrupted""",NA
1,1039,"""filler""","""blins""","""fly""","""do something else for a living""","""full""",15,"""are stup-herders""","2","""no feathers when they grow old.""","""have hollow bones""","""text""","""same""",-99,"""all""",-99,"""Blins""","""uninterrupted""",NA
1,6320,"""filler""","""blins""","""fly""","""fly""","""full""",15,"""have hollow bones""","3","""""","""have hollow bones""","""query""","""same""",1,"""all""",1,"""Blins""","""uninterrupted""",NA
1,3775,"""critical""","""vimble queens""","""hibernate in some other location""","""fly""",NA,16,"""have hollow bones""","0","""Vimbles are social insects that live in colonies of up to a thousand individuals. Vimbles live for a year ""","""hibernate in fallen logs""","""text""","""same""",-99,"""generic""",-99,"""Vimbles""","""int1""",NA
1,1856,"""critical""","""vimble queens""","""hibernate in some other location""","""fly""",NA,16,"""have hollow bones""","1","""or less. They have a single queen, who must find somewhere to ""","""hibernate in fallen logs""","""text""","""same""",-99,"""generic""",-99,"""Vimbles""","""int1""",NA
1,888,"""critical""","""vimble queens""","""hibernate in some other location""","""fly""",NA,16,"""have hollow bones""","2","""hibernate over the winter before starting a new colony. Vimble ""","""hibernate in fallen logs""","""text""","""same""",-99,"""generic""",-99,"""Vimbles""","""int1""",NA
1,1240,"""critical""","""vimble queens""","""hibernate in some other location""","""fly""",NA,16,"""have hollow bones""","3","""queens hibernate in fallen logs""","""hibernate in fallen logs""","""text""","""same""",-99,"""generic""",-99,"""Vimbles""","""int1""",NA
1,5256,"""critical""","""vimble queens""","""hibernate in some other location""","""hibernate in some other location""",NA,16,"""hibernate in fallen logs""","null","""""","""hibernate in fallen logs""","""query""","""same""",0,"""generic""",1,"""Vimbles""","""int1""",NA
1,896,"""critical""","""vimble queens""","""hibernate in some other location""","""hibernate in some other location""",NA,16,"""hibernate in fallen logs""","4","""and only emerge when the weather has become warmer.""","""hibernate in fallen logs""","""text""","""same""",0,"""generic""",1,"""Vimbles""","""int1""",NA
1,3718,"""filler""","""ice storms on Dax""","""last a long time""","""hibernate in some other location""","""full""",17,"""hibernate in fallen logs""","0","""Occasionally on Dax, there will be tremendous ice storms that freeze over the entire planet. These ice ""","""result in permanent damage to the plants and animals on Dax""","""text""","""same""",-99,"""none""",-99,"""Weather""","""uninterrupted""","""before"""
1,3584,"""filler""","""ice storms on Dax""","""last a long time""","""hibernate in some other location""","""full""",17,"""hibernate in fallen logs""","1",""" storms never last long or result in permanent damage to the plants and animals on Dax. However, ""","""result in permanent damage to the plants and animals on Dax""","""text""","""same""",-99,"""none""",-99,"""Weather""","""uninterrupted""","""before"""
1,1248,"""filler""","""ice storms on Dax""","""last a long time""","""hibernate in some other location""","""full""",17,"""hibernate in fallen logs""","2",""" they can be quite noisy. They produce strong southerly winds""","""result in permanent damage to the plants and animals on Dax""","""text""","""same""",-99,"""none""",-99,"""Weather""","""uninterrupted""","""before"""
1,3016,"""filler""","""ice storms on Dax""","""last a long time""","""hibernate in some other location""","""full""",17,"""hibernate in fallen logs""","3",""" and strong northerly winds, frightening most of the animals on Dax.""","""result in permanent damage to the plants and animals on Dax""","""text""","""same""",-99,"""none""",-99,"""Weather""","""uninterrupted""","""before"""
1,12696,"""filler""","""ice storms on Dax""","""last a long time""","""last a long time""","""full""",17,"""result in permanent damage to the plants and animals on Dax""","4","""""","""result in permanent damage to the plants and animals on Dax""","""query""","""same""",1,"""none""",0,"""Weather""","""uninterrupted""","""before"""
2,9745,"""filler""","""NA""","""NA""",NA,NA,0,NA,"0","""Dax is a lot like Earth.  It has seven continents in similar places, but instead of Africa, Europe, Asia, ""","""NA""","""text""",NA,-99,"""generic""",-99,"""An introduction to Dax""","""uninterrupted""",NA
2,7667,"""filler""","""NA""","""NA""",NA,NA,0,NA,"1","""Australia, Antarctica and North and South America, the continents ""","""NA""","""text""",NA,-99,"""generic""",-99,"""An introduction to Dax""","""uninterrupted""",NA
2,8255,"""filler""","""NA""","""NA""",NA,NA,0,NA,"2","""are called  Aga,  Benli, Caro, Dodi, Ente, Fale, and Gomi. Its climate is a lot like Earth&quotechars, too. But the""","""NA""","""text""",NA,-99,"""generic""",-99,"""An introduction to Dax""","""uninterrupted""",NA
2,5193,"""filler""","""NA""","""NA""",NA,NA,0,NA,"3","""  plants and animals of Dax are quite different.""","""NA""","""text""",NA,-99,"""generic""",-99,"""An introduction to Dax""","""uninterrupted""",NA
2,6254,"""filler""","""aliens""","""tolerate apaffs to some extent""",NA,"""full""",1,NA,"0","""Apaffs are a nuisance for the aliens. They make burrows everywhere including in the middle of farmland ""","""find apaffs cute""","""text""",NA,-99,"""most""",-99,"""Apaffs""","""interrupted""","""after"""
2,5447,"""filler""","""aliens""","""tolerate apaffs to some extent""",NA,"""full""",1,NA,"1","""and in front of houses. But most aliens find apaffs cute, and tolerate ""","""find apaffs cute""","""text""",NA,-99,"""most""",-99,"""Apaffs""","""interrupted""","""after"""
2,5746,"""filler""","""aliens""","""tolerate apaffs to some extent""",NA,"""full""",1,NA,"2","""them to some extent. To reproduce, apaffs lay eggs. Apaffs incubate their eggs until hatching and ""","""find apaffs cute""","""text""",NA,-99,"""most""",-99,"""Apaffs""","""interrupted""","""after"""
2,26757,"""filler""","""aliens""","""tolerate apaffs to some extent""","""tolerate apaffs to some extent""","""full""",1,"""find apaffs cute""","null","""""","""find apaffs cute""","""query""","""same""",0.7,"""most""",0.7,"""Apaffs""","""interrupted""","""after"""
2,5246,"""filler""","""aliens""","""tolerate apaffs to some extent""","""tolerate apaffs to some extent""","""full""",1,"""find apaffs cute""","3","""abandon them in special mounds once they have been laid.""","""find apaffs cute""","""text""","""same""",0.7,"""most""",0.7,"""Apaffs""","""interrupted""","""after"""
2,5000,"""filler""","""ice storms on Dax""","""last a long time""","""tolerate apaffs to some extent""","""full""",2,"""find apaffs cute""","0","""Occasionally on Dax, there will be tremendous ice storms that freeze over the entire planet. These ice ""","""result in permanent damage to the plants and animals on Dax""","""text""","""same""",-99,"""none""",-99,"""Weather""","""interrupted""","""before"""
2,5189,"""filler""","""ice storms on Dax""","""last a long time""","""tolerate apaffs to some extent""","""full""",2,"""find apaffs cute""","1",""" storms never last long or result in permanent damage to the plants and animals on Dax. However, ""","""result in permanent damage to the plants and animals on Dax""","""text""","""same""",-99,"""none""",-99,"""Weather""","""interrupted""","""before"""
2,29057,"""filler""","""ice storms on Dax""","""last a long time""","""tolerate apaffs to some extent""","""full""",2,"""find apaffs cute""","2",""" they can be quite noisy. They produce strong southerly winds""","""result in permanent damage to the plants and animals on Dax""","""text""","""same""",-99,"""none""",-99,"""Weather""","""interrupted""","""before"""
2,35315,"""filler""","""ice storms on Dax""","""last a long time""","""last a long time""","""full""",2,"""result in permanent damage to the plants and animals on Dax""","null","""""","""result in permanent damage to the plants and animals on Dax""","""query""","""same""",0.05,"""none""",0.2,"""Weather""","""interrupted""","""before"""
2,5552,"""filler""","""ice storms on Dax""","""last a long time""","""last a long time""","""full""",2,"""result in permanent damage to the plants and animals on Dax""","3",""" and strong northerly winds, frightening most of the animals on Dax.""","""result in permanent damage to the plants and animals on Dax""","""text""","""same""",0.05,"""none""",0.2,"""Weather""","""interrupted""","""before"""
2,5704,"""critical""","""fengnor mated pairs""","""build nests in other places""","""last a long time""",NA,3,"""result in permanent damage to the plants and animals on Dax""","0","""Fengnors are smaller, nocturnal creatures that live in dense forests. ""","""build nests in gluers""","""text""","""same""",-99,"""generic""",-99,"""Fengnors""","""after""",NA
2,8139,"""critical""","""fengnor mated pairs""","""build nests in other places""","""last a long time""",NA,3,"""result in permanent damage to the plants and animals on Dax""","1","""They have complex mating habits. They mate for life and the males ""","""build nests in gluers""","""text""","""same""",-99,"""generic""",-99,"""Fengnors""","""after""",NA
2,23036,"""critical""","""fengnor mated pairs""","""build nests in other places""","""last a long time""",NA,3,"""result in permanent damage to the plants and animals on Dax""","2","""often bring twigs and leaves to the females during courtship. The mated pairs use these twigs and ""","""build nests in gluers""","""text""","""same""",-99,"""generic""",-99,"""Fengnors""","""after""",NA
2,7021,"""critical""","""fengnor mated pairs""","""build nests in other places""","""last a long time""",NA,3,"""result in permanent damage to the plants and animals on Dax""","3","""leaves to build their quite elaborate nests in gluers and""","""build nests in gluers""","""text""","""same""",-99,"""generic""",-99,"""Fengnors""","""after""",NA
2,1396,"""critical""","""fengnor mated pairs""","""build nests in other places""","""last a long time""",NA,3,"""result in permanent damage to the plants and animals on Dax""","4","""droops.""","""build nests in gluers""","""text""","""same""",-99,"""generic""",-99,"""Fengnors""","""after""",NA
2,34136,"""critical""","""fengnor mated pairs""","""build nests in other places""","""build nests in other places""",NA,3,"""build nests in gluers""","5","""""","""build nests in gluers""","""query""","""same""",0.05,"""generic""",0.95,"""Fengnors""","""after""",NA
2,5567,"""critical""","""basket weavers""","""are part of some other guild""","""build nests in other places""",NA,4,"""build nests in gluers""","0","""The aliens have many kinds of specialized skills and trades, such as basket weaving. Crafters are found ""","""are part of the Tinnoclan""","""text""","""same""",-99,"""generic""",-99,"""Crafts""","""before""",NA
2,4778,"""critical""","""basket weavers""","""are part of some other guild""","""build nests in other places""",NA,4,"""build nests in gluers""","1","""all over Dax, but they are especially common in the city of Rondoo, where aliens from all over go to ""","""are part of the Tinnoclan""","""text""","""same""",-99,"""generic""",-99,"""Crafts""","""before""",NA
2,4843,"""critical""","""basket weavers""","""are part of some other guild""","""build nests in other places""",NA,4,"""build nests in gluers""","2","""buy luxury goods. To help make themselves known, crafters all ""","""are part of the Tinnoclan""","""text""","""same""",-99,"""generic""",-99,"""Crafts""","""before""",NA
2,3426,"""critical""","""basket weavers""","""are part of some other guild""","""build nests in other places""",NA,4,"""build nests in gluers""","3","""over Dax join guilds with other crafters of the same trade. ""","""are part of the Tinnoclan""","""text""","""same""",-99,"""generic""",-99,"""Crafts""","""before""",NA
2,5448,"""critical""","""basket weavers""","""are part of some other guild""","""build nests in other places""",NA,4,"""build nests in gluers""","4","""Basket weavers are part of Tinnoclan""","""are part of the Tinnoclan""","""text""","""same""",-99,"""generic""",-99,"""Crafts""","""before""",NA
2,6759,"""critical""","""basket weavers""","""are part of some other guild""","""build nests in other places""",NA,4,"""build nests in gluers""","5","""and Farzaguild.""","""are part of the Tinnoclan""","""text""","""same""",-99,"""generic""",-99,"""Crafts""","""before""",NA
2,34793,"""critical""","""basket weavers""","""are part of some other guild""","""are part of some other guild""",NA,4,"""are part of the Tinnoclan""","6","""""","""are part of the Tinnoclan""","""query""","""same""",0,"""generic""",1,"""Crafts""","""before""",NA
2,3442,"""critical""","""vimble queens""","""hibernate in some other location""","""are part of some other guild""",NA,5,"""are part of the Tinnoclan""","0","""Vimbles are social insects that live in colonies of up to a thousand individuals. Vimbles live for a year ""","""hibernate in fallen logs""","""text""","""same""",-99,"""generic""",-99,"""Vimbles""","""int1""",NA
2,8229,"""critical""","""vimble queens""","""hibernate in some other location""","""are part of some other guild""",NA,5,"""are part of the Tinnoclan""","1","""or less. They have a single queen, who must find somewhere to ""","""hibernate in fallen logs""","""text""","""same""",-99,"""generic""",-99,"""Vimbles""","""int1""",NA
2,4687,"""critical""","""vimble queens""","""hibernate in some other location""","""are part of some other guild""",NA,5,"""are part of the Tinnoclan""","2","""hibernate over the winter before starting a new colony. Vimble ""","""hibernate in fallen logs""","""text""","""same""",-99,"""generic""",-99,"""Vimbles""","""int1""",NA
2,4364,"""critical""","""vimble queens""","""hibernate in some other location""","""are part of some other guild""",NA,5,"""are part of the Tinnoclan""","3","""queens hibernate in fallen logs""","""hibernate in fallen logs""","""text""","""same""",-99,"""generic""",-99,"""Vimbles""","""int1""",NA
2,15366,"""critical""","""vimble queens""","""hibernate in some other location""","""hibernate in some other location""",NA,5,"""hibernate in fallen logs""","null","""""","""hibernate in fallen logs""","""query""","""same""",0,"""generic""",1,"""Vimbles""","""int1""",NA
2,1802,"""critical""","""vimble queens""","""hibernate in some other location""","""hibernate in some other location""",NA,5,"""hibernate in fallen logs""","4","""and only emerge when the weather has become warmer.""","""hibernate in fallen logs""","""text""","""same""",0,"""generic""",1,"""Vimbles""","""int1""",NA
2,4285,"""filler""","""blins""","""fly""","""hibernate in some other location""","""full""",6,"""hibernate in fallen logs""","0","""Blins are small creatures. They all have hollow bones and fly. They often fly together in flocks of up""","""have hollow bones""","""text""","""same""",-99,"""all""",-99,"""Blins""","""uninterrupted""",NA
2,7427,"""filler""","""blins""","""fly""","""hibernate in some other location""","""full""",6,"""hibernate in fallen logs""","1",""" to a hundred. They have shiny blue feathers when they are young and ""","""have hollow bones""","""text""","""same""",-99,"""all""",-99,"""Blins""","""uninterrupted""",NA
2,10601,"""filler""","""blins""","""fly""","""hibernate in some other location""","""full""",6,"""hibernate in fallen logs""","2","""no feathers when they grow old.""","""have hollow bones""","""text""","""same""",-99,"""all""",-99,"""Blins""","""uninterrupted""",NA
2,15832,"""filler""","""blins""","""fly""","""fly""","""full""",6,"""have hollow bones""","3","""""","""have hollow bones""","""query""","""same""",1,"""all""",1,"""Blins""","""uninterrupted""",NA
2,5022,"""critical""","""glippets""","""live on some other continent""","""fly""",NA,7,"""have hollow bones""","0","""Glippets are large creatures, quite intelligent, with a life-span of about ""","""live on the continent of Caro""","""text""","""same""",-99,"""generic""",-99,"""Glippets""","""int2""",NA
2,1973,"""critical""","""glippets""","""live on some other continent""","""fly""",NA,7,"""have hollow bones""","1","""sixty years. They live on the southern continent of Caro and""","""live on the continent of Caro""","""text""","""same""",-99,"""generic""",-99,"""Glippets""","""int2""",NA
2,4472,"""critical""","""glippets""","""live on some other continent""","""live on some other continent""",NA,7,"""live on the continent of Caro""","null","""""","""live on the continent of Caro""","""query""","""same""",0,"""generic""",1,"""Glippets""","""int2""",NA
2,1515,"""critical""","""glippets""","""live on some other continent""","""live on some other continent""",NA,7,"""live on the continent of Caro""","2","""enjoy the sunshine there.""","""live on the continent of Caro""","""text""","""same""",0,"""generic""",1,"""Glippets""","""int2""",NA
2,3154,"""critical""","""reesles""","""wear something else around their heads""","""live on some other continent""",NA,8,"""live on the continent of Caro""","0","""Reesles are strange, furry creatures, often found in the homes of the aliens. They are not house pets ""","""wear wutsats around their heads""","""text""","""same""",-99,"""generic""",-99,"""Reesles""","""before""",NA
2,2206,"""critical""","""reesles""","""wear something else around their heads""","""live on some other continent""",NA,8,"""live on the continent of Caro""","1","""but quasi-domensticated animals. They will steal food from you if you ""","""wear wutsats around their heads""","""text""","""same""",-99,"""generic""",-99,"""Reesles""","""before""",NA
2,3753,"""critical""","""reesles""","""wear something else around their heads""","""live on some other continent""",NA,8,"""live on the continent of Caro""","2","""are not paying attention. They have special headgear to help identify ""","""wear wutsats around their heads""","""text""","""same""",-99,"""generic""",-99,"""Reesles""","""before""",NA
2,1867,"""critical""","""reesles""","""wear something else around their heads""","""live on some other continent""",NA,8,"""live on the continent of Caro""","3","""their owners. Around their heads, they wear giant wutsats""","""wear wutsats around their heads""","""text""","""same""",-99,"""generic""",-99,"""Reesles""","""before""",NA
2,1249,"""critical""","""reesles""","""wear something else around their heads""","""live on some other continent""",NA,8,"""live on the continent of Caro""","4","""and krevnors.""","""wear wutsats around their heads""","""text""","""same""",-99,"""generic""",-99,"""Reesles""","""before""",NA
2,11648,"""critical""","""reesles""","""wear something else around their heads""","""wear something else around their heads""",NA,8,"""wear wutsats around their heads""","5","""""","""wear wutsats around their heads""","""query""","""same""",0.5,"""generic""",0.5,"""Reesles""","""before""",NA
2,8228,"""critical""","""Krens""","""do something else for a living""","""wear something else around their heads""",NA,9,"""wear wutsats around their heads""","0","""Krens are a tribe of the aliens that live on the continent of Benli, which has no agriculture. Like ""","""are stup-herders""","""text""","""same""",-99,"""generic""",-99,"""Finding food""","""int1""",NA
2,4205,"""critical""","""Krens""","""do something else for a living""","""wear something else around their heads""",NA,9,"""wear wutsats around their heads""","1","""most creatures on Dax, Krens eat other creatures to survive. Animals like stups, four-legged creatures ""","""are stup-herders""","""text""","""same""",-99,"""generic""",-99,"""Finding food""","""int1""",NA
2,5521,"""critical""","""Krens""","""do something else for a living""","""wear something else around their heads""",NA,9,"""wear wutsats around their heads""","2","""with large antlers, are a resource for the Krens. Stups roam all over the windy highlands of Dax, far ""","""are stup-herders""","""text""","""same""",-99,"""generic""",-99,"""Finding food""","""int1""",NA
2,8061,"""critical""","""Krens""","""do something else for a living""","""wear something else around their heads""",NA,9,"""wear wutsats around their heads""","3","""from the sea. For a living, krens are stup-herders""","""are stup-herders""","""text""","""same""",-99,"""generic""",-99,"""Finding food""","""int1""",NA
2,14501,"""critical""","""Krens""","""do something else for a living""","""do something else for a living""",NA,9,"""are stup-herders""","null","""""","""are stup-herders""","""query""","""same""",0,"""generic""",1,"""Finding food""","""int1""",NA
2,1228,"""critical""","""Krens""","""do something else for a living""","""do something else for a living""",NA,9,"""are stup-herders""","4","""and incorporate stups into their religion.""","""are stup-herders""","""text""","""same""",0,"""generic""",1,"""Finding food""","""int1""",NA
2,2243,"""critical""","""kweps""","""chew on some other kind of bark""","""do something else for a living""",NA,10,"""are stup-herders""","0","""Kweps hunt in packs. Even though they are pack animals, all of them have highly idiosyncractic food ""","""chew on xorfun bark""","""text""","""same""",-99,"""generic""",-99,"""Kweps""","""after""",NA
2,3155,"""critical""","""kweps""","""chew on some other kind of bark""","""do something else for a living""",NA,10,"""are stup-herders""","1","""preferences and behaviors. Some of them like to eat apples and others like to eat oranges. When they go ""","""chew on xorfun bark""","""text""","""same""",-99,"""generic""",-99,"""Kweps""","""after""",NA
2,2938,"""critical""","""kweps""","""chew on some other kind of bark""","""do something else for a living""",NA,10,"""are stup-herders""","2","""hunting at night they look for creatures sleeping alone, not in ""","""chew on xorfun bark""","""text""","""same""",-99,"""generic""",-99,"""Kweps""","""after""",NA
2,2982,"""critical""","""kweps""","""chew on some other kind of bark""","""do something else for a living""",NA,10,"""are stup-herders""","3","""groups. Before they go hunting, the kweps chew on the bark of xorfun and""","""chew on xorfun bark""","""text""","""same""",-99,"""generic""",-99,"""Kweps""","""after""",NA
2,1530,"""critical""","""kweps""","""chew on some other kind of bark""","""do something else for a living""",NA,10,"""are stup-herders""","4","""tunkel.""","""chew on xorfun bark""","""text""","""same""",-99,"""generic""",-99,"""Kweps""","""after""",NA
2,7797,"""critical""","""kweps""","""chew on some other kind of bark""","""chew on some other kind of bark""",NA,10,"""chew on xorfun bark""","5","""""","""chew on xorfun bark""","""query""","""same""",0.5,"""generic""",0.5,"""Kweps""","""after""",NA
2,3336,"""filler""","""supools""","""live for a very long time""","""chew on some other kind of bark""","""full""",11,"""chew on xorfun bark""","0","""Supools are the biggest creatures on Dax. They all live in the oceans and ""","""live in the oceans""","""text""","""same""",-99,"""all""",-99,"""Supools""","""uninterrupted""","""before"""
2,3095,"""filler""","""supools""","""live for a very long time""","""chew on some other kind of bark""","""full""",11,"""chew on xorfun bark""","1","""all of them live for a very long time. In the mornings, they play in the open ocean. Supools travel as pairs ""","""live in the oceans""","""text""","""same""",-99,"""all""",-99,"""Supools""","""uninterrupted""","""before"""
2,1376,"""filler""","""supools""","""live for a very long time""","""chew on some other kind of bark""","""full""",11,"""chew on xorfun bark""","2","""and in large groups of more than ten individuals.""","""live in the oceans""","""text""","""same""",-99,"""all""",-99,"""Supools""","""uninterrupted""","""before"""
2,4425,"""filler""","""supools""","""live for a very long time""","""live for a very long time""","""full""",11,"""live in the oceans""","3","""""","""live in the oceans""","""query""","""same""",1,"""all""",1,"""Supools""","""uninterrupted""","""before"""
2,4165,"""critical""","""oller families""","""carry their young in something else""","""live for a very long time""",NA,12,"""live in the oceans""","0","""Ollers spend most of their lives in water, but occasionally come on land to gather berries. Ollers use ""","""carry their young in guklags""","""text""","""same""",-99,"""generic""",-99,"""Ollers""","""int4""",NA
2,2398,"""critical""","""oller families""","""carry their young in something else""","""live for a very long time""",NA,12,"""live in the oceans""","1","""tools on land but have a difficult time making them. So the tools are passed down from parents to ""","""carry their young in guklags""","""text""","""same""",-99,"""generic""",-99,"""Ollers""","""int4""",NA
2,2649,"""critical""","""oller families""","""carry their young in something else""","""live for a very long time""",NA,12,"""live in the oceans""","2","""children, so that each family only has one of each kind of tool. Baby ollers find it very exciting to be on ""","""carry their young in guklags""","""text""","""same""",-99,"""generic""",-99,"""Ollers""","""int4""",NA
2,2051,"""critical""","""oller families""","""carry their young in something else""","""live for a very long time""",NA,12,"""live in the oceans""","3","""land, but they have trouble walking and need to be carried by family ""","""carry their young in guklags""","""text""","""same""",-99,"""generic""",-99,"""Ollers""","""int4""",NA
2,3165,"""critical""","""oller families""","""carry their young in something else""","""live for a very long time""",NA,12,"""live in the oceans""","4","""members. While on land, ollers carry their young in guklags and trullets""","""carry their young in guklags""","""text""","""same""",-99,"""generic""",-99,"""Ollers""","""int4""",NA
2,6522,"""critical""","""oller families""","""carry their young in something else""","""carry their young in something else""",NA,12,"""carry their young in guklags""","null","""""","""carry their young in guklags""","""query""","""same""",0.5,"""generic""",0.5,"""Ollers""","""int4""",NA
2,1595,"""critical""","""oller families""","""carry their young in something else""","""carry their young in something else""",NA,12,"""carry their young in guklags""","5","""which are woven from strong reeds.""","""carry their young in guklags""","""text""","""same""",0.5,"""generic""",0.5,"""Ollers""","""int4""",NA
2,2602,"""critical""","""lorches""","""have some other type of wing""","""carry their young in something else""",NA,13,"""carry their young in guklags""","0","""Lorches have massive beaks and are found on the continents of Dodi ""","""have long wings""","""text""","""same""",-99,"""generic""",-99,"""Lorches""","""after""",NA
2,2923,"""critical""","""lorches""","""have some other type of wing""","""carry their young in something else""",NA,13,"""carry their young in guklags""","1","""and Gomi. The two continents are quite different in what kinds of ""","""have long wings""","""text""","""same""",-99,"""generic""",-99,"""Lorches""","""after""",NA
2,1567,"""critical""","""lorches""","""have some other type of wing""","""carry their young in something else""",NA,13,"""carry their young in guklags""","2","""animals are available for them to eat. Lorches have long wings and""","""have long wings""","""text""","""same""",-99,"""generic""",-99,"""Lorches""","""after""",NA
2,1408,"""critical""","""lorches""","""have some other type of wing""","""carry their young in something else""",NA,13,"""carry their young in guklags""","3","""short wings.""","""have long wings""","""text""","""same""",-99,"""generic""",-99,"""Lorches""","""after""",NA
2,5071,"""critical""","""lorches""","""have some other type of wing""","""have some other type of wing""",NA,13,"""have long wings""","4","""""","""have long wings""","""query""","""same""",0.5,"""generic""",0.5,"""Lorches""","""after""",NA
2,2021,"""critical""","""farmers in the springtime""","""plant some other crop""","""have some other type of wing""",NA,14,"""have long wings""","0","""The soil on the continent of Aga is very fertile, and the aliens have learned to grow many crops. ""","""plant fujusi""","""text""","""same""",-99,"""generic""",-99,"""Agriculture""","""int4""",NA
2,1852,"""critical""","""farmers in the springtime""","""plant some other crop""","""have some other type of wing""",NA,14,"""have long wings""","1","""However, farmers only grow one type of crop in each season to increase their profits when selling. ""","""plant fujusi""","""text""","""same""",-99,"""generic""",-99,"""Agriculture""","""int4""",NA
2,4104,"""critical""","""farmers in the springtime""","""plant some other crop""","""have some other type of wing""",NA,14,"""have long wings""","2","""Their farms are very big, often stretching several miles in every direction. During the springtime, ""","""plant fujusi""","""text""","""same""",-99,"""generic""",-99,"""Agriculture""","""int4""",NA
2,2588,"""critical""","""farmers in the springtime""","""plant some other crop""","""have some other type of wing""",NA,14,"""have long wings""","3","""the aliens flood their fields in order to plant  fujusi and soroneeks""","""plant fujusi""","""text""","""same""",-99,"""generic""",-99,"""Agriculture""","""int4""",NA
2,11971,"""critical""","""farmers in the springtime""","""plant some other crop""","""plant some other crop""",NA,14,"""plant fujusi""","null","""""","""plant fujusi""","""query""","""same""",1,"""generic""",1,"""Agriculture""","""int4""",NA
2,3370,"""critical""","""farmers in the springtime""","""plant some other crop""","""plant some other crop""",NA,14,"""plant fujusi""","4","""which they sell in the marketplaces.""","""plant fujusi""","""text""","""same""",1,"""generic""",1,"""Agriculture""","""int4""",NA
2,3105,"""critical""","""ludinos""","""ascribe to some other religion""","""plant some other crop""",NA,15,"""plant fujusi""","0","""The Ludinos are an alien tribe. They are very industrious and live on all of the seven continents, ""","""ascribe to Cabooism""","""text""","""same""",-99,"""generic""",-99,"""Religion""","""before""",NA
2,1583,"""critical""","""ludinos""","""ascribe to some other religion""","""plant some other crop""",NA,15,"""plant fujusi""","1","""and they all are highly spiritual. They ascribe to Cabooism""","""ascribe to Cabooism""","""text""","""same""",-99,"""generic""",-99,"""Religion""","""before""",NA
2,1111,"""critical""","""ludinos""","""ascribe to some other religion""","""plant some other crop""",NA,15,"""plant fujusi""","2","""and Daithism.""","""ascribe to Cabooism""","""text""","""same""",-99,"""generic""",-99,"""Religion""","""before""",NA
2,9182,"""critical""","""ludinos""","""ascribe to some other religion""","""ascribe to some other religion""",NA,15,"""ascribe to Cabooism""","3","""""","""ascribe to Cabooism""","""query""","""same""",0.5,"""generic""",0.5,"""Religion""","""before""",NA
2,3490,"""filler""","""aliens""","""admire Wint""","""ascribe to some other religion""","""interruption""",16,"""ascribe to Cabooism""","0","""Wint lived a long time ago in the mountains.  But all aliens remember Wint and admire him because he ""","""remember Wint""","""text""","""same""",-99,"""all""",-99,"""Wint of the Mountains""","""uninterrupted""","""after"""
2,1563,"""filler""","""aliens""","""admire Wint""","""ascribe to some other religion""","""interruption""",16,"""ascribe to Cabooism""","1","""was the one that found the lost city of Baff. While he wasn&quotechart exploring, ""","""remember Wint""","""text""","""same""",-99,"""all""",-99,"""Wint of the Mountains""","""uninterrupted""","""after"""
2,1453,"""filler""","""aliens""","""admire Wint""","""ascribe to some other religion""","""interruption""",16,"""ascribe to Cabooism""","2","""Wint stayed in his village in the mountains. He was a hunter and ""","""remember Wint""","""text""","""same""",-99,"""all""",-99,"""Wint of the Mountains""","""uninterrupted""","""after"""
2,1047,"""filler""","""aliens""","""admire Wint""","""ascribe to some other religion""","""interruption""",16,"""ascribe to Cabooism""","3","""a blacksmith.""","""remember Wint""","""text""","""same""",-99,"""all""",-99,"""Wint of the Mountains""","""uninterrupted""","""after"""
2,4966,"""filler""","""aliens""","""admire Wint""","""admire Wint""","""interruption""",16,"""remember Wint""","4","""""","""remember Wint""","""query""","""same""",1,"""all""",1,"""Wint of the Mountains""","""uninterrupted""","""after"""
2,2772,"""critical""","""fruit that isooms produce""","""has some other-textured skin""","""admire Wint""",NA,17,"""remember Wint""","0","""Isooms are tree-like plants that are found in hilly regions of Fale. Their fruit is edible, and the aliens often ""","""has bumpy skin""","""text""","""same""",-99,"""generic""",-99,"""Isooms""","""int2""",NA
2,1498,"""critical""","""fruit that isooms produce""","""has some other-textured skin""","""admire Wint""",NA,17,"""remember Wint""","1","""cultivate isooms for food. The skin of the fruit that isooms produce is bumpy and""","""has bumpy skin""","""text""","""same""",-99,"""generic""",-99,"""Isooms""","""int2""",NA
2,7292,"""critical""","""fruit that isooms produce""","""has some other-textured skin""","""has some other-textured skin""",NA,17,"""has bumpy skin""","null","""""","""has bumpy skin""","""query""","""same""",0,"""generic""",1,"""Isooms""","""int2""",NA
2,1204,"""critical""","""fruit that isooms produce""","""has some other-textured skin""","""has some other-textured skin""",NA,17,"""has bumpy skin""","2","""red.""","""has bumpy skin""","""text""","""same""",0,"""generic""",1,"""Isooms""","""int2""",NA
3,11458,"""filler""","""NA""","""NA""",NA,NA,0,NA,"0","""Dax is a lot like Earth.  It has seven continents in similar places, but instead of Africa, Europe, Asia, ""","""NA""","""text""",NA,-99,"""generic""",-99,"""An introduction to Dax""","""uninterrupted""",NA
3,4735,"""filler""","""NA""","""NA""",NA,NA,0,NA,"1","""Australia, Antarctica and North and South America, the continents ""","""NA""","""text""",NA,-99,"""generic""",-99,"""An introduction to Dax""","""uninterrupted""",NA
3,7657,"""filler""","""NA""","""NA""",NA,NA,0,NA,"2","""are called  Aga,  Benli, Caro, Dodi, Ente, Fale, and Gomi. Its climate is a lot like Earth&quotechars, too. But the""","""NA""","""text""",NA,-99,"""generic""",-99,"""An introduction to Dax""","""uninterrupted""",NA
3,3855,"""filler""","""NA""","""NA""",NA,NA,0,NA,"3","""  plants and animals of Dax are quite different.""","""NA""","""text""",NA,-99,"""generic""",-99,"""An introduction to Dax""","""uninterrupted""",NA
3,8026,"""critical""","""ludinos""","""ascribe to some other religion""",NA,NA,1,NA,"0","""The Ludinos are an alien tribe. They are very industrious and live on all of the seven continents, ""","""ascribe to Cabooism""","""text""",NA,-99,"""generic""",-99,"""Religion""","""before""",NA
3,7225,"""critical""","""ludinos""","""ascribe to some other religion""",NA,NA,1,NA,"1","""and they all are highly spiritual. They ascribe to Cabooism""","""ascribe to Cabooism""","""text""",NA,-99,"""generic""",-99,"""Religion""","""before""",NA
3,2810,"""critical""","""ludinos""","""ascribe to some other religion""",NA,NA,1,NA,"2","""and Daithism.""","""ascribe to Cabooism""","""text""",NA,-99,"""generic""",-99,"""Religion""","""before""",NA
3,22573,"""critical""","""ludinos""","""ascribe to some other religion""","""ascribe to some other religion""",NA,1,"""ascribe to Cabooism""","3","""""","""ascribe to Cabooism""","""query""","""same""",0.5,"""generic""",0.5,"""Religion""","""before""",NA
3,8590,"""critical""","""oller families""","""carry their young in something else""","""ascribe to some other religion""",NA,2,"""ascribe to Cabooism""","0","""Ollers spend most of their lives in water, but occasionally come on land to gather berries. Ollers use ""","""carry their young in guklags""","""text""","""same""",-99,"""generic""",-99,"""Ollers""","""after""",NA
3,6772,"""critical""","""oller families""","""carry their young in something else""","""ascribe to some other religion""",NA,2,"""ascribe to Cabooism""","1","""tools on land but have a difficult time making them. So the tools are passed down from parents to ""","""carry their young in guklags""","""text""","""same""",-99,"""generic""",-99,"""Ollers""","""after""",NA
3,7314,"""critical""","""oller families""","""carry their young in something else""","""ascribe to some other religion""",NA,2,"""ascribe to Cabooism""","2","""children, so that each family only has one of each kind of tool. Baby ollers find it very exciting to be on ""","""carry their young in guklags""","""text""","""same""",-99,"""generic""",-99,"""Ollers""","""after""",NA
3,4103,"""critical""","""oller families""","""carry their young in something else""","""ascribe to some other religion""",NA,2,"""ascribe to Cabooism""","3","""land, but they have trouble walking and need to be carried by family ""","""carry their young in guklags""","""text""","""same""",-99,"""generic""",-99,"""Ollers""","""after""",NA
3,5248,"""critical""","""oller families""","""carry their young in something else""","""ascribe to some other religion""",NA,2,"""ascribe to Cabooism""","4","""members. While on land, ollers carry their young in guklags and""","""carry their young in guklags""","""text""","""same""",-99,"""generic""",-99,"""Ollers""","""after""",NA
3,1696,"""critical""","""oller families""","""carry their young in something else""","""ascribe to some other religion""",NA,2,"""ascribe to Cabooism""","5","""trullets.""","""carry their young in guklags""","""text""","""same""",-99,"""generic""",-99,"""Ollers""","""after""",NA
3,16797,"""critical""","""oller families""","""carry their young in something else""","""carry their young in something else""",NA,2,"""carry their young in guklags""","6","""""","""carry their young in guklags""","""query""","""same""",0.5,"""generic""",0.5,"""Ollers""","""after""",NA
3,16912,"""filler""","""aliens""","""are provided for by Zorxon""","""carry their young in something else""","""full""",3,"""carry their young in guklags""","0","""Zorxon is the overlord of Dax.  Everyone loves Zorxon because she provides for all the aliens of Dax. ""","""love Zorxon""","""text""","""same""",-99,"""all""",-99,"""Zorxon, overlord of Dax""","""interrupted""","""before"""
3,6570,"""filler""","""aliens""","""are provided for by Zorxon""","""carry their young in something else""","""full""",3,"""carry their young in guklags""","1","""Throughout her life, she traveled continuously throughout the seven continents to meet her subjects ""","""love Zorxon""","""text""","""same""",-99,"""all""",-99,"""Zorxon, overlord of Dax""","""interrupted""","""before"""
3,9601,"""filler""","""aliens""","""are provided for by Zorxon""","""are provided for by Zorxon""","""full""",3,"""love Zorxon""","null","""""","""love Zorxon""","""query""","""same""",0.99,"""all""",0.99,"""Zorxon, overlord of Dax""","""interrupted""","""before"""
3,12296,"""filler""","""aliens""","""are provided for by Zorxon""","""are provided for by Zorxon""","""full""",3,"""love Zorxon""","2","""and held court on her home continent of Ente, where all the aliens could come speak to her.""","""love Zorxon""","""text""","""same""",0.99,"""all""",0.99,"""Zorxon, overlord of Dax""","""interrupted""","""before"""
3,5428,"""filler""","""aliens""","""tolerate apaffs to some extent""","""are provided for by Zorxon""","""full""",4,"""love Zorxon""","0","""Apaffs are a nuisance for the aliens. They make burrows everywhere including in the middle of farmland ""","""find apaffs cute""","""text""","""same""",-99,"""most""",-99,"""Apaffs""","""interrupted""","""after"""
3,6891,"""filler""","""aliens""","""tolerate apaffs to some extent""","""are provided for by Zorxon""","""full""",4,"""love Zorxon""","1","""and in front of houses. But most aliens find apaffs cute, and tolerate ""","""find apaffs cute""","""text""","""same""",-99,"""most""",-99,"""Apaffs""","""interrupted""","""after"""
3,7024,"""filler""","""aliens""","""tolerate apaffs to some extent""","""are provided for by Zorxon""","""full""",4,"""love Zorxon""","2","""them to some extent. To reproduce, apaffs lay eggs. Apaffs incubate their eggs until hatching and ""","""find apaffs cute""","""text""","""same""",-99,"""most""",-99,"""Apaffs""","""interrupted""","""after"""
3,17579,"""filler""","""aliens""","""tolerate apaffs to some extent""","""tolerate apaffs to some extent""","""full""",4,"""find apaffs cute""","null","""""","""find apaffs cute""","""query""","""same""",0.9,"""most""",0.8,"""Apaffs""","""interrupted""","""after"""
3,4874,"""filler""","""aliens""","""tolerate apaffs to some extent""","""tolerate apaffs to some extent""","""full""",4,"""find apaffs cute""","3","""abandon them in special mounds once they have been laid.""","""find apaffs cute""","""text""","""same""",0.9,"""most""",0.8,"""Apaffs""","""interrupted""","""after"""
3,13268,"""critical""","""reesles""","""wear something else around their heads""","""tolerate apaffs to some extent""",NA,5,"""find apaffs cute""","0","""Reesles are strange, furry creatures, often found in the homes of the aliens. They are not house pets ""","""wear wutsats around their heads""","""text""","""same""",-99,"""generic""",-99,"""Reesles""","""before""",NA
3,5878,"""critical""","""reesles""","""wear something else around their heads""","""tolerate apaffs to some extent""",NA,5,"""find apaffs cute""","1","""but quasi-domensticated animals. They will steal food from you if you ""","""wear wutsats around their heads""","""text""","""same""",-99,"""generic""",-99,"""Reesles""","""before""",NA
3,4956,"""critical""","""reesles""","""wear something else around their heads""","""tolerate apaffs to some extent""",NA,5,"""find apaffs cute""","2","""are not paying attention. They have special headgear to help identify ""","""wear wutsats around their heads""","""text""","""same""",-99,"""generic""",-99,"""Reesles""","""before""",NA
