"","workerid","condition","chapter_num","rt","trial_type","predicate_1","key","val","page_type","memory_fail","slider_fail","chapter"
"1","345d87f9a0723fec9020dd2c292f552b","uninterrupted",3,6851,"critical","build nests in gluers","response_1",0.5,"query",FALSE,FALSE,"Fengnors"
"2","345d87f9a0723fec9020dd2c292f552b","nme_uninterrupted",4,9364,"critical","are stup-herders","response_1",0.93,"query",FALSE,FALSE,"Finding food"
"3","345d87f9a0723fec9020dd2c292f552b","uninterrupted",5,3480,"critical","carry their young in guklags","response_1",0.51,"query",FALSE,FALSE,"Ollers"
"4","345d87f9a0723fec9020dd2c292f552b","nme_interrupted",6,6795,"critical","flood their fields to plant fujusi","response_1",0.98,"query",FALSE,FALSE,"Agriculture"
"5","345d87f9a0723fec9020dd2c292f552b","nme_interrupted",7,6052,"critical","are part of the Tinno guild","response_1",0.93,"query",FALSE,FALSE,"Crafts"
"6","345d87f9a0723fec9020dd2c292f552b","uninterrupted",8,3776,"critical","live on the continent of Caro","response_1",0.51,"query",FALSE,FALSE,"Glippets"
"7","345d87f9a0723fec9020dd2c292f552b","uninterrupted",10,5130,"critical","have four horns","response_1",0.51,"query",FALSE,FALSE,"Landeks"
"8","345d87f9a0723fec9020dd2c292f552b","interrupted",13,3448,"critical","have long wings","response_1",1,"query",FALSE,FALSE,"Lorches"
"9","345d87f9a0723fec9020dd2c292f552b","interrupted",15,4921,"critical","wear wutsats around their heads","response_1",1,"query",FALSE,FALSE,"Reesles"
"10","345d87f9a0723fec9020dd2c292f552b","nme_uninterrupted",16,3834,"critical","hibernate in fallen logs","response_1",0.99,"query",FALSE,FALSE,"Vimbles"
"11","345d87f9a0723fec9020dd2c292f552b","interrupted",17,2735,"critical","have striped fur","response_1",0.99,"query",FALSE,FALSE,"Kaples"
"12","345d87f9a0723fec9020dd2c292f552b","interrupted",20,2928,"critical","chew on xorfun","response_1",1,"query",FALSE,FALSE,"Kweps"
"13","c52582d8e5bb6e6b275814185c5ff5fb","uninterrupted",3,5874,"critical","are part of the Tinno guild","response_1",0.7,"query",FALSE,FALSE,"Crafts"
"14","c52582d8e5bb6e6b275814185c5ff5fb","interrupted",7,4061,"critical","have long wings","response_1",1,"query",FALSE,FALSE,"Lorches"
"15","c52582d8e5bb6e6b275814185c5ff5fb","uninterrupted",9,7217,"critical","wear wutsats around their heads","response_1",1,"query",FALSE,FALSE,"Reesles"
"16","c52582d8e5bb6e6b275814185c5ff5fb","nme_uninterrupted",10,2147,"critical","have six wings","response_1",1,"query",FALSE,FALSE,"Batozes"
"17","c52582d8e5bb6e6b275814185c5ff5fb","uninterrupted",11,3917,"critical","produce fruit with bumpy skin","response_1",1,"query",FALSE,FALSE,"Isooms"
"18","c52582d8e5bb6e6b275814185c5ff5fb","interrupted",13,3389,"critical","have striped fur","response_1",1,"query",FALSE,FALSE,"Kaples"
"19","c52582d8e5bb6e6b275814185c5ff5fb","interrupted",15,7787,"critical","flood their fields to plant fujusi","response_1",1,"query",FALSE,FALSE,"Agriculture"
"20","c52582d8e5bb6e6b275814185c5ff5fb","nme_uninterrupted",16,2703,"critical","carry their young in guklags","response_1",1,"query",FALSE,FALSE,"Ollers"
"21","c52582d8e5bb6e6b275814185c5ff5fb","nme_interrupted",17,3289,"critical","chew on xorfun","response_1",0.5,"query",FALSE,FALSE,"Kweps"
"22","c52582d8e5bb6e6b275814185c5ff5fb","interrupted",18,11972,"critical","have territories at the tops of tall mountains","response_1",1,"query",FALSE,FALSE,"Mooks"
"23","c52582d8e5bb6e6b275814185c5ff5fb","nme_interrupted",19,2139,"critical","have four horns","response_1",1,"query",FALSE,FALSE,"Landeks"
"24","c52582d8e5bb6e6b275814185c5ff5fb","uninterrupted",20,5908,"critical","ascribe to the Caboo religion","response_1",0.48,"query",FALSE,FALSE,"Ludinos"
"25","6d689db9b7d331eac4363f9a6a6ec3a2","uninterrupted",3,10224,"critical","have long wings","response_1",1,"query",FALSE,FALSE,"Lorches"
"26","6d689db9b7d331eac4363f9a6a6ec3a2","nme_uninterrupted",4,9176,"critical","are part of the Tinno guild","response_1",0.25,"query",FALSE,FALSE,"Crafts"
"27","6d689db9b7d331eac4363f9a6a6ec3a2","interrupted",5,2776,"critical","have territories at the tops of tall mountains","response_1",1,"query",FALSE,FALSE,"Mooks"
"28","6d689db9b7d331eac4363f9a6a6ec3a2","nme_interrupted",6,3983,"critical","produce fruit with bumpy skin","response_1",1,"query",FALSE,FALSE,"Isooms"
"29","6d689db9b7d331eac4363f9a6a6ec3a2","uninterrupted",8,5000,"critical","have six wings","response_1",0.5,"query",FALSE,FALSE,"Batozes"
"30","6d689db9b7d331eac4363f9a6a6ec3a2","interrupted",10,5960,"critical","ascribe to the Caboo religion","response_1",0.99,"query",FALSE,FALSE,"Ludinos"
"31","6d689db9b7d331eac4363f9a6a6ec3a2","uninterrupted",12,6264,"critical","chew on xorfun","response_1",0.5,"query",FALSE,FALSE,"Kweps"
"32","6d689db9b7d331eac4363f9a6a6ec3a2","uninterrupted",14,3200,"critical","build nests in gluers","response_1",1,"query",FALSE,FALSE,"Fengnors"
"33","6d689db9b7d331eac4363f9a6a6ec3a2","nme_uninterrupted",15,2871,"critical","live on the continent of Caro","response_1",1,"query",FALSE,FALSE,"Glippets"
"34","6d689db9b7d331eac4363f9a6a6ec3a2","interrupted",16,2270,"critical","have four horns","response_1",1,"query",FALSE,FALSE,"Landeks"
"35","6d689db9b7d331eac4363f9a6a6ec3a2","nme_interrupted",17,2791,"critical","carry their young in guklags","response_1",1,"query",FALSE,FALSE,"Ollers"
"36","6d689db9b7d331eac4363f9a6a6ec3a2","interrupted",20,3095,"critical","hibernate in fallen logs","response_1",1,"query",FALSE,FALSE,"Vimbles"
"37","db9acf6ed743ca115ab1d9c760359e67","uninterrupted",3,5647,"critical","hibernate in fallen logs","response_1",0.52,"query",FALSE,FALSE,"Vimbles"
"38","db9acf6ed743ca115ab1d9c760359e67","interrupted",5,4297,"critical","have territories at the tops of tall mountains","response_1",0.8,"query",FALSE,FALSE,"Mooks"
"39","db9acf6ed743ca115ab1d9c760359e67","interrupted",7,2849,"critical","wear wutsats around their heads","response_1",0.52,"query",FALSE,FALSE,"Reesles"
"40","db9acf6ed743ca115ab1d9c760359e67","nme_uninterrupted",8,2767,"critical","live on the continent of Caro","response_1",0.46,"query",FALSE,FALSE,"Glippets"
"41","db9acf6ed743ca115ab1d9c760359e67","uninterrupted",10,3691,"critical","have long wings","response_1",0.06,"query",FALSE,FALSE,"Lorches"
"42","db9acf6ed743ca115ab1d9c760359e67","nme_interrupted",11,4048,"critical","build nests in gluers","response_1",0.73,"query",FALSE,FALSE,"Fengnors"
"43","db9acf6ed743ca115ab1d9c760359e67","uninterrupted",13,4480,"critical","produce fruit with bumpy skin","response_1",0.52,"query",FALSE,FALSE,"Isooms"
"44","db9acf6ed743ca115ab1d9c760359e67","interrupted",15,2528,"critical","chew on xorfun","response_1",0.35,"query",FALSE,FALSE,"Kweps"
"45","db9acf6ed743ca115ab1d9c760359e67","nme_interrupted",16,2295,"critical","have striped fur","response_1",0.51,"query",FALSE,FALSE,"Kaples"
"46","db9acf6ed743ca115ab1d9c760359e67","interrupted",17,2903,"critical","are part of the Tinno guild","response_1",0.2,"query",FALSE,FALSE,"Crafts"
"47","db9acf6ed743ca115ab1d9c760359e67","nme_uninterrupted",19,3433,"critical","have four horns","response_1",0.94,"query",FALSE,FALSE,"Landeks"
"48","db9acf6ed743ca115ab1d9c760359e67","uninterrupted",20,2225,"critical","carry their young in guklags","response_1",0.92,"query",FALSE,FALSE,"Ollers"
"49","c8f825d14e1634ceed189ad6277b1bff","uninterrupted",3,8773,"critical","wear wutsats around their heads","response_1",0.82,"query",FALSE,FALSE,"Reesles"
"50","c8f825d14e1634ceed189ad6277b1bff","interrupted",5,3278,"critical","have long wings","response_1",1,"query",FALSE,FALSE,"Lorches"
"51","c8f825d14e1634ceed189ad6277b1bff","nme_interrupted",6,3202,"critical","have four horns","response_1",1,"query",FALSE,FALSE,"Landeks"
"52","c8f825d14e1634ceed189ad6277b1bff","uninterrupted",7,6822,"critical","flood their fields to plant fujusi","response_1",0.8,"query",FALSE,FALSE,"Agriculture"
"53","c8f825d14e1634ceed189ad6277b1bff","nme_interrupted",8,5253,"critical","hibernate in fallen logs","response_1",0.99,"query",FALSE,FALSE,"Vimbles"
"54","c8f825d14e1634ceed189ad6277b1bff","nme_uninterrupted",9,2946,"critical","live on the continent of Caro","response_1",1,"query",FALSE,FALSE,"Glippets"
"55","c8f825d14e1634ceed189ad6277b1bff","uninterrupted",10,5971,"critical","ascribe to the Caboo religion","response_1",0.75,"query",FALSE,FALSE,"Ludinos"
"56","c8f825d14e1634ceed189ad6277b1bff","uninterrupted",12,4453,"critical","produce fruit with bumpy skin","response_1",0.5,"query",FALSE,FALSE,"Isooms"
"57","c8f825d14e1634ceed189ad6277b1bff","nme_uninterrupted",14,4159,"critical","chew on xorfun","response_1",0.83,"query",FALSE,FALSE,"Kweps"
"58","c8f825d14e1634ceed189ad6277b1bff","interrupted",15,5683,"critical","are part of the Tinno guild","response_1",1,"query",FALSE,FALSE,"Crafts"
"59","c8f825d14e1634ceed189ad6277b1bff","interrupted",17,4146,"critical","have territories at the tops of tall mountains","response_1",1,"query",FALSE,FALSE,"Mooks"
"60","c8f825d14e1634ceed189ad6277b1bff","interrupted",19,2366,"critical","have striped fur","response_1",1,"query",FALSE,FALSE,"Kaples"
"61","77593aebcb7da310342dade08c7c1c6d","interrupted",4,6868,"critical","wear wutsats around their heads","response_1",0.7,"query",FALSE,FALSE,"Reesles"
"62","77593aebcb7da310342dade08c7c1c6d","nme_uninterrupted",5,2662,"critical","have striped fur","response_1",1,"query",FALSE,FALSE,"Kaples"
"63","77593aebcb7da310342dade08c7c1c6d","interrupted",6,2912,"critical","have six wings","response_1",1,"query",FALSE,FALSE,"Batozes"
"64","77593aebcb7da310342dade08c7c1c6d","uninterrupted",8,4546,"critical","have long wings","response_1",0.5,"query",FALSE,FALSE,"Lorches"
"65","77593aebcb7da310342dade08c7c1c6d","nme_uninterrupted",9,4414,"critical","flood their fields to plant fujusi","response_1",0.97,"query",FALSE,FALSE,"Agriculture"
"66","77593aebcb7da310342dade08c7c1c6d","uninterrupted",10,2942,"critical","produce fruit with bumpy skin","response_1",0.5,"query",FALSE,FALSE,"Isooms"
"67","77593aebcb7da310342dade08c7c1c6d","uninterrupted",12,7033,"critical","live on the continent of Caro","response_1",0.76,"query",FALSE,FALSE,"Glippets"
"68","77593aebcb7da310342dade08c7c1c6d","interrupted",15,3763,"critical","are stup-herders","response_1",1,"query",FALSE,FALSE,"Finding food"
"69","77593aebcb7da310342dade08c7c1c6d","nme_interrupted",16,2412,"critical","have four horns","response_1",1,"query",FALSE,FALSE,"Landeks"
"70","77593aebcb7da310342dade08c7c1c6d","uninterrupted",17,6421,"critical","have territories at the tops of tall mountains","response_1",0.5,"query",FALSE,FALSE,"Mooks"
"71","77593aebcb7da310342dade08c7c1c6d","nme_interrupted",19,3774,"critical","hibernate in fallen logs","response_1",1,"query",FALSE,FALSE,"Vimbles"
"72","77593aebcb7da310342dade08c7c1c6d","interrupted",20,6005,"critical","are part of the Tinno guild","response_1",0.9,"query",FALSE,FALSE,"Crafts"
"73","68a7448610d0a31a7ab9a4af921f813a","interrupted",4,9010,"critical","have six wings","response_1",1,"query",FALSE,FALSE,"Batozes"
"74","68a7448610d0a31a7ab9a4af921f813a","uninterrupted",6,14052,"critical","have territories at the tops of tall mountains","response_1",0.53,"query",FALSE,FALSE,"Mooks"
"75","68a7448610d0a31a7ab9a4af921f813a","nme_uninterrupted",7,12539,"critical","build nests in gluers","response_1",1,"query",FALSE,FALSE,"Fengnors"
"76","68a7448610d0a31a7ab9a4af921f813a","uninterrupted",8,12218,"critical","produce fruit with bumpy skin","response_1",0.99,"query",FALSE,FALSE,"Isooms"
"77","68a7448610d0a31a7ab9a4af921f813a","nme_interrupted",9,8125,"critical","hibernate in fallen logs","response_1",1,"query",FALSE,FALSE,"Vimbles"
"78","68a7448610d0a31a7ab9a4af921f813a","uninterrupted",10,16886,"critical","are stup-herders","response_1",1,"query",FALSE,FALSE,"Finding food"
"79","68a7448610d0a31a7ab9a4af921f813a","interrupted",12,17840,"critical","wear wutsats around their heads","response_1",1,"query",FALSE,FALSE,"Reesles"
"80","68a7448610d0a31a7ab9a4af921f813a","nme_interrupted",13,7790,"critical","live on the continent of Caro","response_1",0.99,"query",FALSE,FALSE,"Glippets"
"81","68a7448610d0a31a7ab9a4af921f813a","interrupted",15,8569,"critical","have long wings","response_1",1,"query",FALSE,FALSE,"Lorches"
"82","68a7448610d0a31a7ab9a4af921f813a","nme_uninterrupted",17,4446,"critical","have striped fur","response_1",1,"query",FALSE,FALSE,"Kaples"
"83","68a7448610d0a31a7ab9a4af921f813a","interrupted",18,10712,"critical","flood their fields to plant fujusi","response_1",1,"query",FALSE,FALSE,"Agriculture"
"84","68a7448610d0a31a7ab9a4af921f813a","uninterrupted",20,16156,"critical","are part of the Tinno guild","response_1",0.95,"query",FALSE,FALSE,"Crafts"
"85","5d3e299c78b17e65a35dbafd0ab07c18","uninterrupted",3,7344,"critical","ascribe to the Caboo religion","response_1",0.5,"query",FALSE,FALSE,"Ludinos"
"86","5d3e299c78b17e65a35dbafd0ab07c18","interrupted",5,3881,"critical","have territories at the tops of tall mountains","response_1",1,"query",FALSE,FALSE,"Mooks"
"87","5d3e299c78b17e65a35dbafd0ab07c18","nme_interrupted",6,3624,"critical","have striped fur","response_1",1,"query",FALSE,FALSE,"Kaples"
"88","5d3e299c78b17e65a35dbafd0ab07c18","uninterrupted",8,5129,"critical","have six wings","response_1",0.7,"query",FALSE,FALSE,"Batozes"
"89","5d3e299c78b17e65a35dbafd0ab07c18","interrupted",10,3904,"critical","are part of the Tinno guild","response_1",1,"query",FALSE,FALSE,"Crafts"
"90","5d3e299c78b17e65a35dbafd0ab07c18","nme_interrupted",11,4263,"critical","are stup-herders","response_1",1,"query",FALSE,FALSE,"Finding food"
"91","5d3e299c78b17e65a35dbafd0ab07c18","uninterrupted",12,3808,"critical","wear wutsats around their heads","response_1",1,"query",FALSE,FALSE,"Reesles"
"92","5d3e299c78b17e65a35dbafd0ab07c18","nme_uninterrupted",15,3720,"critical","build nests in gluers","response_1",1,"query",FALSE,FALSE,"Fengnors"
"93","5d3e299c78b17e65a35dbafd0ab07c18","uninterrupted",16,6920,"critical","produce fruit with bumpy skin","response_1",0.8,"query",FALSE,FALSE,"Isooms"
"94","5d3e299c78b17e65a35dbafd0ab07c18","interrupted",18,2769,"critical","carry their young in guklags","response_1",1,"query",FALSE,FALSE,"Ollers"
"95","5d3e299c78b17e65a35dbafd0ab07c18","nme_uninterrupted",19,3183,"critical","live on the continent of Caro","response_1",1,"query",FALSE,FALSE,"Glippets"
"96","5d3e299c78b17e65a35dbafd0ab07c18","interrupted",20,3736,"critical","have four horns","response_1",1,"query",FALSE,FALSE,"Landeks"
"97","22a15ee8b8b78d308b362aa7be50ca3b","interrupted",3,4618,"critical","have six wings","response_1",0.99,"query",FALSE,FALSE,"Batozes"
"98","22a15ee8b8b78d308b362aa7be50ca3b","interrupted",5,7080,"critical","have territories at the tops of tall mountains","response_1",0.96,"query",FALSE,FALSE,"Mooks"
"99","22a15ee8b8b78d308b362aa7be50ca3b","interrupted",8,8343,"critical","wear wutsats around their heads","response_1",0.9,"query",FALSE,FALSE,"Reesles"
"100","22a15ee8b8b78d308b362aa7be50ca3b","nme_uninterrupted",10,5405,"critical","have striped fur","response_1",0.99,"query",FALSE,FALSE,"Kaples"
"101","22a15ee8b8b78d308b362aa7be50ca3b","uninterrupted",11,7004,"critical","ascribe to the Caboo religion","response_1",0.5,"query",FALSE,FALSE,"Ludinos"
"102","22a15ee8b8b78d308b362aa7be50ca3b","nme_interrupted",12,7256,"critical","are part of the Tinno guild","response_1",0.5,"query",FALSE,FALSE,"Crafts"
"103","22a15ee8b8b78d308b362aa7be50ca3b","uninterrupted",14,6074,"critical","flood their fields to plant fujusi","response_1",0,"query",FALSE,FALSE,"Agriculture"
"104","22a15ee8b8b78d308b362aa7be50ca3b","uninterrupted",16,7770,"critical","are stup-herders","response_1",0,"query",FALSE,FALSE,"Finding food"
"105","22a15ee8b8b78d308b362aa7be50ca3b","nme_interrupted",17,4974,"critical","produce fruit with bumpy skin","response_1",0.98,"query",FALSE,FALSE,"Isooms"
"106","22a15ee8b8b78d308b362aa7be50ca3b","interrupted",18,4865,"critical","live on the continent of Caro","response_1",1,"query",FALSE,FALSE,"Glippets"
"107","22a15ee8b8b78d308b362aa7be50ca3b","nme_uninterrupted",19,5842,"critical","carry their young in guklags","response_1",1,"query",FALSE,FALSE,"Ollers"
"108","22a15ee8b8b78d308b362aa7be50ca3b","uninterrupted",20,4394,"critical","chew on xorfun","response_1",0.9,"query",FALSE,FALSE,"Kweps"
"109","a4e3911a2c8600ff6233ea7cf67c67bd","interrupted",3,4040,"critical","carry their young in guklags","response_1",0.93,"query",FALSE,FALSE,"Ollers"
"110","a4e3911a2c8600ff6233ea7cf67c67bd","uninterrupted",5,2684,"critical","have long wings","response_1",0.51,"query",FALSE,FALSE,"Lorches"
"111","a4e3911a2c8600ff6233ea7cf67c67bd","nme_uninterrupted",6,4639,"critical","are stup-herders","response_1",0.99,"query",FALSE,FALSE,"Finding food"
"112","a4e3911a2c8600ff6233ea7cf67c67bd","interrupted",8,2988,"critical","have six wings","response_1",1,"query",FALSE,FALSE,"Batozes"
"113","a4e3911a2c8600ff6233ea7cf67c67bd","nme_uninterrupted",10,2903,"critical","wear wutsats around their heads","response_1",0.94,"query",FALSE,FALSE,"Reesles"
"114","a4e3911a2c8600ff6233ea7cf67c67bd","nme_interrupted",11,3144,"critical","build nests in gluers","response_1",0.81,"query",FALSE,FALSE,"Fengnors"
"115","a4e3911a2c8600ff6233ea7cf67c67bd","uninterrupted",12,8072,"critical","flood their fields to plant fujusi","response_1",0.88,"query",FALSE,FALSE,"Agriculture"
"116","a4e3911a2c8600ff6233ea7cf67c67bd","uninterrupted",14,3400,"critical","produce fruit with bumpy skin","response_1",0.5,"query",FALSE,FALSE,"Isooms"
"117","a4e3911a2c8600ff6233ea7cf67c67bd","uninterrupted",16,10007,"critical","hibernate in fallen logs","response_1",0.75,"query",FALSE,FALSE,"Vimbles"
"118","a4e3911a2c8600ff6233ea7cf67c67bd","nme_interrupted",17,3568,"critical","live on the continent of Caro","response_1",0.92,"query",FALSE,FALSE,"Glippets"
"119","a4e3911a2c8600ff6233ea7cf67c67bd","interrupted",18,5840,"critical","chew on xorfun","response_1",0.82,"query",FALSE,FALSE,"Kweps"
"120","a4e3911a2c8600ff6233ea7cf67c67bd","interrupted",20,4276,"critical","have territories at the tops of tall mountains","response_1",0.85,"query",FALSE,FALSE,"Mooks"
"121","bc2add784087a8ffd66a4a85ac258b9b","interrupted",4,4519,"critical","live on the continent of Caro","response_1",0.98,"query",FALSE,FALSE,"Glippets"
"122","bc2add784087a8ffd66a4a85ac258b9b","nme_uninterrupted",5,3572,"critical","have territories at the tops of tall mountains","response_1",0.99,"query",FALSE,FALSE,"Mooks"
"123","bc2add784087a8ffd66a4a85ac258b9b","uninterrupted",6,4225,"critical","are stup-herders","response_1",0.98,"query",FALSE,FALSE,"Finding food"
"124","bc2add784087a8ffd66a4a85ac258b9b","uninterrupted",8,10276,"critical","flood their fields to plant fujusi","response_1",0,"query",FALSE,FALSE,"Agriculture"
"125","bc2add784087a8ffd66a4a85ac258b9b","interrupted",10,4462,"critical","hibernate in fallen logs","response_1",1,"query",FALSE,FALSE,"Vimbles"
"126","bc2add784087a8ffd66a4a85ac258b9b","nme_uninterrupted",11,6233,"critical","wear wutsats around their heads","response_1",1,"query",FALSE,FALSE,"Reesles"
"127","bc2add784087a8ffd66a4a85ac258b9b","nme_interrupted",12,8052,"critical","build nests in gluers","response_1",1,"query",FALSE,FALSE,"Fengnors"
"128","bc2add784087a8ffd66a4a85ac258b9b","uninterrupted",13,7850,"critical","chew on xorfun","response_1",0.95,"query",FALSE,FALSE,"Kweps"
"129","bc2add784087a8ffd66a4a85ac258b9b","interrupted",16,3542,"critical","have six wings","response_1",1,"query",FALSE,FALSE,"Batozes"
"130","bc2add784087a8ffd66a4a85ac258b9b","nme_interrupted",17,7321,"critical","are part of the Tinno guild","response_1",0.85,"query",FALSE,FALSE,"Crafts"
"131","bc2add784087a8ffd66a4a85ac258b9b","uninterrupted",18,4462,"critical","have striped fur","response_1",0.5,"query",FALSE,FALSE,"Kaples"
"132","bc2add784087a8ffd66a4a85ac258b9b","interrupted",20,4257,"critical","produce fruit with bumpy skin","response_1",1,"query",FALSE,FALSE,"Isooms"
"133","ab75a50716c86b1a53d8d1d57cda757e","interrupted",4,9765,"critical","have long wings","response_1",1,"query",FALSE,FALSE,"Lorches"
"134","ab75a50716c86b1a53d8d1d57cda757e","nme_uninterrupted",5,7032,"critical","carry their young in guklags","response_1",0.9,"query",FALSE,FALSE,"Ollers"
"135","ab75a50716c86b1a53d8d1d57cda757e","uninterrupted",6,4517,"critical","wear wutsats around their heads","response_1",0.74,"query",FALSE,FALSE,"Reesles"
"136","ab75a50716c86b1a53d8d1d57cda757e","nme_interrupted",7,6201,"critical","have striped fur","response_1",1,"query",FALSE,FALSE,"Kaples"
"137","ab75a50716c86b1a53d8d1d57cda757e","uninterrupted",8,6158,"critical","are stup-herders","response_1",0.5,"query",FALSE,FALSE,"Finding food"
"138","ab75a50716c86b1a53d8d1d57cda757e","interrupted",10,4990,"critical","chew on xorfun","response_1",1,"query",FALSE,FALSE,"Kweps"
"139","ab75a50716c86b1a53d8d1d57cda757e","interrupted",12,5768,"critical","build nests in gluers","response_1",1,"query",FALSE,FALSE,"Fengnors"
"140","ab75a50716c86b1a53d8d1d57cda757e","uninterrupted",14,5662,"critical","ascribe to the Caboo religion","response_1",0.5,"query",FALSE,FALSE,"Ludinos"
"141","ab75a50716c86b1a53d8d1d57cda757e","interrupted",16,4919,"critical","have territories at the tops of tall mountains","response_1",1,"query",FALSE,FALSE,"Mooks"
"142","ab75a50716c86b1a53d8d1d57cda757e","nme_uninterrupted",17,4067,"critical","are part of the Tinno guild","response_1",0.78,"query",FALSE,FALSE,"Crafts"
"143","ab75a50716c86b1a53d8d1d57cda757e","uninterrupted",19,5765,"critical","have four horns","response_1",0.5,"query",FALSE,FALSE,"Landeks"
"144","ab75a50716c86b1a53d8d1d57cda757e","nme_interrupted",20,7430,"critical","produce fruit with bumpy skin","response_1",0.75,"query",FALSE,FALSE,"Isooms"
"145","57783eb8423bb93a3e449819fef87506","interrupted",3,18255,"critical","have six wings","response_1",0.98,"query",FALSE,FALSE,"Batozes"
"146","57783eb8423bb93a3e449819fef87506","nme_uninterrupted",5,8380,"critical","have long wings","response_1",0.98,"query",FALSE,FALSE,"Lorches"
"147","57783eb8423bb93a3e449819fef87506","interrupted",8,12565,"critical","live on the continent of Caro","response_1",0.8,"query",FALSE,FALSE,"Glippets"
"148","57783eb8423bb93a3e449819fef87506","nme_interrupted",9,7428,"critical","have striped fur","response_1",0.98,"query",FALSE,FALSE,"Kaples"
"149","57783eb8423bb93a3e449819fef87506","uninterrupted",10,15317,"critical","ascribe to the Caboo religion","response_1",0.99,"query",FALSE,FALSE,"Ludinos"
"150","57783eb8423bb93a3e449819fef87506","uninterrupted",12,6886,"critical","are stup-herders","response_1",0.99,"query",FALSE,FALSE,"Finding food"
"151","57783eb8423bb93a3e449819fef87506","nme_uninterrupted",13,39595,"critical","build nests in gluers","response_1",1,"query",FALSE,FALSE,"Fengnors"
"152","57783eb8423bb93a3e449819fef87506","interrupted",14,25792,"critical","are part of the Tinno guild","response_1",0.66,"query",FALSE,FALSE,"Crafts"
"153","57783eb8423bb93a3e449819fef87506","uninterrupted",16,26120,"critical","chew on xorfun","response_1",0.9,"query",FALSE,FALSE,"Kweps"
"154","57783eb8423bb93a3e449819fef87506","interrupted",18,14439,"critical","have four horns","response_1",0.99,"query",FALSE,FALSE,"Landeks"
"155","57783eb8423bb93a3e449819fef87506","nme_interrupted",19,12681,"critical","have territories at the tops of tall mountains","response_1",0.99,"query",FALSE,FALSE,"Mooks"
"156","57783eb8423bb93a3e449819fef87506","uninterrupted",20,26501,"critical","carry their young in guklags","response_1",0.6,"query",FALSE,FALSE,"Ollers"
"157","7f174cd30e42972da262fb8e255c70a9","interrupted",3,6044,"critical","carry their young in guklags","response_1",1,"query",FALSE,FALSE,"Ollers"
"158","7f174cd30e42972da262fb8e255c70a9","uninterrupted",5,6704,"critical","are stup-herders","response_1",0.5,"query",FALSE,FALSE,"Finding food"
"159","7f174cd30e42972da262fb8e255c70a9","nme_uninterrupted",8,8301,"critical","flood their fields to plant fujusi","response_1",0.97,"query",FALSE,FALSE,"Agriculture"
"160","7f174cd30e42972da262fb8e255c70a9","uninterrupted",9,5638,"critical","have territories at the tops of tall mountains","response_1",0.8,"query",FALSE,FALSE,"Mooks"
"161","7f174cd30e42972da262fb8e255c70a9","nme_uninterrupted",10,7372,"critical","wear wutsats around their heads","response_1",0.4,"query",FALSE,FALSE,"Reesles"
"162","7f174cd30e42972da262fb8e255c70a9","interrupted",11,5012,"critical","hibernate in fallen logs","response_1",0.86,"query",FALSE,FALSE,"Vimbles"
"163","7f174cd30e42972da262fb8e255c70a9","nme_interrupted",12,3778,"critical","have long wings","response_1",1,"query",FALSE,FALSE,"Lorches"
"164","7f174cd30e42972da262fb8e255c70a9","interrupted",13,4133,"critical","produce fruit with bumpy skin","response_1",1,"query",FALSE,FALSE,"Isooms"
"165","7f174cd30e42972da262fb8e255c70a9","interrupted",15,8912,"critical","are part of the Tinno guild","response_1",0.7,"query",FALSE,FALSE,"Crafts"
"166","7f174cd30e42972da262fb8e255c70a9","nme_interrupted",16,8725,"critical","have four horns","response_1",1,"query",FALSE,FALSE,"Landeks"
"167","7f174cd30e42972da262fb8e255c70a9","uninterrupted",17,5780,"critical","live on the continent of Caro","response_1",1,"query",FALSE,FALSE,"Glippets"
"168","7f174cd30e42972da262fb8e255c70a9","uninterrupted",20,4695,"critical","have striped fur","response_1",0.5,"query",FALSE,FALSE,"Kaples"
"169","d2acd70dd344fc1289722083cfcda7e0","uninterrupted",3,5794,"critical","produce fruit with bumpy skin","response_1",0.5,"query",FALSE,FALSE,"Isooms"
"170","d2acd70dd344fc1289722083cfcda7e0","uninterrupted",5,6939,"critical","carry their young in guklags","response_1",0.59,"query",FALSE,FALSE,"Ollers"
"171","d2acd70dd344fc1289722083cfcda7e0","nme_interrupted",6,7415,"critical","build nests in gluers","response_1",0.93,"query",FALSE,FALSE,"Fengnors"
"172","d2acd70dd344fc1289722083cfcda7e0","interrupted",8,4762,"critical","flood their fields to plant fujusi","response_1",1,"query",FALSE,FALSE,"Agriculture"
"173","d2acd70dd344fc1289722083cfcda7e0","nme_uninterrupted",9,4901,"critical","are stup-herders","response_1",0.61,"query",FALSE,FALSE,"Finding food"
"174","d2acd70dd344fc1289722083cfcda7e0","uninterrupted",10,3536,"critical","have four horns","response_1",0.49,"query",FALSE,FALSE,"Landeks"
"175","d2acd70dd344fc1289722083cfcda7e0","nme_interrupted",11,4124,"critical","have six wings","response_1",1,"query",FALSE,FALSE,"Batozes"
"176","d2acd70dd344fc1289722083cfcda7e0","interrupted",12,3814,"critical","are part of the Tinno guild","response_1",0.86,"query",FALSE,FALSE,"Crafts"
"177","d2acd70dd344fc1289722083cfcda7e0","interrupted",14,3781,"critical","have striped fur","response_1",0.89,"query",FALSE,FALSE,"Kaples"
"178","d2acd70dd344fc1289722083cfcda7e0","nme_uninterrupted",15,4767,"critical","hibernate in fallen logs","response_1",0.95,"query",FALSE,FALSE,"Vimbles"
"179","d2acd70dd344fc1289722083cfcda7e0","uninterrupted",17,2562,"critical","have long wings","response_1",0.56,"query",FALSE,FALSE,"Lorches"
"180","d2acd70dd344fc1289722083cfcda7e0","interrupted",20,5796,"critical","wear wutsats around their heads","response_1",0.95,"query",FALSE,FALSE,"Reesles"
"181","dbe04baf2e224896b397b520c2865711","nme_interrupted",3,2544,"critical","have four horns","response_1",1,"query",FALSE,FALSE,"Landeks"
"182","dbe04baf2e224896b397b520c2865711","uninterrupted",4,5392,"critical","have long wings","response_1",0.5,"query",FALSE,FALSE,"Lorches"
"183","dbe04baf2e224896b397b520c2865711","uninterrupted",6,2480,"critical","have six wings","response_1",0.5,"query",FALSE,FALSE,"Batozes"
"184","dbe04baf2e224896b397b520c2865711","nme_uninterrupted",7,2000,"critical","carry their young in guklags","response_1",1,"query",FALSE,FALSE,"Ollers"
"185","dbe04baf2e224896b397b520c2865711","interrupted",8,2176,"critical","chew on xorfun","response_1",1,"query",FALSE,FALSE,"Kweps"
"186","dbe04baf2e224896b397b520c2865711","interrupted",11,2120,"critical","produce fruit with bumpy skin","response_1",1,"query",FALSE,FALSE,"Isooms"
"187","dbe04baf2e224896b397b520c2865711","interrupted",13,2320,"critical","have striped fur","response_1",1,"query",FALSE,FALSE,"Kaples"
"188","dbe04baf2e224896b397b520c2865711","nme_uninterrupted",14,1936,"critical","are part of the Tinno guild","response_1",1,"query",FALSE,FALSE,"Crafts"
"189","dbe04baf2e224896b397b520c2865711","uninterrupted",15,7656,"critical","have territories at the tops of tall mountains","response_1",0.5,"query",FALSE,FALSE,"Mooks"
"190","dbe04baf2e224896b397b520c2865711","interrupted",17,1808,"critical","hibernate in fallen logs","response_1",1,"query",FALSE,FALSE,"Vimbles"
"191","dbe04baf2e224896b397b520c2865711","uninterrupted",19,2376,"critical","flood their fields to plant fujusi","response_1",1,"query",FALSE,FALSE,"Agriculture"
"192","dbe04baf2e224896b397b520c2865711","nme_interrupted",20,1776,"critical","ascribe to the Caboo religion","response_1",1,"query",FALSE,FALSE,"Ludinos"
"193","1be08a4c5c3fe380846ada8c88e36241","uninterrupted",4,2231,"critical","flood their fields to plant fujusi","response_1",0.73,"query",FALSE,FALSE,"Agriculture"
"194","1be08a4c5c3fe380846ada8c88e36241","interrupted",6,2415,"critical","have striped fur","response_1",0.55,"query",FALSE,FALSE,"Kaples"
"195","1be08a4c5c3fe380846ada8c88e36241","nme_interrupted",7,1945,"critical","have long wings","response_1",0.72,"query",FALSE,FALSE,"Lorches"
"196","1be08a4c5c3fe380846ada8c88e36241","nme_uninterrupted",8,1767,"critical","produce fruit with bumpy skin","response_1",0.25,"query",FALSE,FALSE,"Isooms"
"197","1be08a4c5c3fe380846ada8c88e36241","interrupted",9,2129,"critical","carry their young in guklags","response_1",0.62,"query",FALSE,FALSE,"Ollers"
"198","1be08a4c5c3fe380846ada8c88e36241","nme_interrupted",10,2049,"critical","ascribe to the Caboo religion","response_1",0.62,"query",FALSE,FALSE,"Ludinos"
"199","1be08a4c5c3fe380846ada8c88e36241","interrupted",11,3127,"critical","chew on xorfun","response_1",0.57,"query",FALSE,FALSE,"Kweps"
"200","1be08a4c5c3fe380846ada8c88e36241","uninterrupted",13,2573,"critical","have territories at the tops of tall mountains","response_1",0.58,"query",FALSE,FALSE,"Mooks"
"201","1be08a4c5c3fe380846ada8c88e36241","interrupted",15,2389,"critical","wear wutsats around their heads","response_1",0.62,"query",FALSE,FALSE,"Reesles"
"202","1be08a4c5c3fe380846ada8c88e36241","uninterrupted",18,2694,"critical","hibernate in fallen logs","response_1",0.48,"query",FALSE,FALSE,"Vimbles"
"203","1be08a4c5c3fe380846ada8c88e36241","nme_uninterrupted",19,1794,"critical","have six wings","response_1",0.63,"query",FALSE,FALSE,"Batozes"
"204","1be08a4c5c3fe380846ada8c88e36241","uninterrupted",20,3240,"critical","have four horns","response_1",0.7,"query",FALSE,FALSE,"Landeks"
"205","ca0d17e5b0b53a5eaf360b7fd0f1532f","interrupted",3,5480,"critical","chew on xorfun","response_1",0.98,"query",FALSE,FALSE,"Kweps"
"206","ca0d17e5b0b53a5eaf360b7fd0f1532f","nme_interrupted",4,3392,"critical","ascribe to the Caboo religion","response_1",0.61,"query",FALSE,FALSE,"Ludinos"
"207","ca0d17e5b0b53a5eaf360b7fd0f1532f","uninterrupted",5,6539,"critical","flood their fields to plant fujusi","response_1",0.83,"query",FALSE,FALSE,"Agriculture"
"208","ca0d17e5b0b53a5eaf360b7fd0f1532f","nme_uninterrupted",7,5768,"critical","wear wutsats around their heads","response_1",0.98,"query",FALSE,FALSE,"Reesles"
"209","ca0d17e5b0b53a5eaf360b7fd0f1532f","interrupted",8,2992,"critical","have territories at the tops of tall mountains","response_1",0.9,"query",FALSE,FALSE,"Mooks"
"210","ca0d17e5b0b53a5eaf360b7fd0f1532f","uninterrupted",10,7679,"critical","have four horns","response_1",0.5,"query",FALSE,FALSE,"Landeks"
"211","ca0d17e5b0b53a5eaf360b7fd0f1532f","interrupted",12,4612,"critical","carry their young in guklags","response_1",0.87,"query",FALSE,FALSE,"Ollers"
"212","ca0d17e5b0b53a5eaf360b7fd0f1532f","nme_interrupted",14,3300,"critical","produce fruit with bumpy skin","response_1",0.93,"query",FALSE,FALSE,"Isooms"
"213","ca0d17e5b0b53a5eaf360b7fd0f1532f","uninterrupted",15,2900,"critical","hibernate in fallen logs","response_1",0.8,"query",FALSE,FALSE,"Vimbles"
"214","ca0d17e5b0b53a5eaf360b7fd0f1532f","nme_uninterrupted",17,7036,"critical","have six wings","response_1",0.99,"query",FALSE,FALSE,"Batozes"
"215","ca0d17e5b0b53a5eaf360b7fd0f1532f","uninterrupted",18,3516,"critical","live on the continent of Caro","response_1",0.5,"query",FALSE,FALSE,"Glippets"
"216","ca0d17e5b0b53a5eaf360b7fd0f1532f","interrupted",20,3248,"critical","have long wings","response_1",0.9,"query",FALSE,FALSE,"Lorches"
"217","012f25f08282560c3a051d9fa256da0a","interrupted",3,11882,"critical","produce fruit with bumpy skin","response_1",1,"query",FALSE,FALSE,"Isooms"
"218","012f25f08282560c3a051d9fa256da0a","nme_interrupted",4,12481,"critical","carry their young in guklags","response_1",1,"query",FALSE,FALSE,"Ollers"
"219","012f25f08282560c3a051d9fa256da0a","interrupted",5,7405,"critical","ascribe to the Caboo religion","response_1",1,"query",FALSE,FALSE,"Ludinos"
"220","012f25f08282560c3a051d9fa256da0a","nme_uninterrupted",7,9459,"critical","have six wings","response_1",1,"query",FALSE,FALSE,"Batozes"
"221","012f25f08282560c3a051d9fa256da0a","uninterrupted",8,8050,"critical","chew on xorfun","response_1",1,"query",FALSE,FALSE,"Kweps"
"222","012f25f08282560c3a051d9fa256da0a","uninterrupted",11,11676,"critical","have striped fur","response_1",0.5,"query",FALSE,FALSE,"Kaples"
"223","012f25f08282560c3a051d9fa256da0a","interrupted",13,6709,"critical","build nests in gluers","response_1",1,"query",FALSE,FALSE,"Fengnors"
"224","012f25f08282560c3a051d9fa256da0a","uninterrupted",15,5827,"critical","have territories at the tops of tall mountains","response_1",0.5,"query",FALSE,FALSE,"Mooks"
"225","012f25f08282560c3a051d9fa256da0a","nme_interrupted",16,3943,"critical","have four horns","response_1",1,"query",FALSE,FALSE,"Landeks"
"226","012f25f08282560c3a051d9fa256da0a","nme_uninterrupted",17,11337,"critical","flood their fields to plant fujusi","response_1",1,"query",FALSE,FALSE,"Agriculture"
"227","012f25f08282560c3a051d9fa256da0a","interrupted",18,5158,"critical","are stup-herders","response_1",1,"query",FALSE,FALSE,"Finding food"
"228","012f25f08282560c3a051d9fa256da0a","uninterrupted",20,5676,"critical","are part of the Tinno guild","response_1",0.5,"query",FALSE,FALSE,"Crafts"
"229","9115909c858d487ba962a3c2ed2a9880","interrupted",3,5452,"critical","ascribe to the Caboo religion","response_1",1,"query",FALSE,FALSE,"Ludinos"
"230","9115909c858d487ba962a3c2ed2a9880","nme_interrupted",5,6709,"critical","have four horns","response_1",0.99,"query",FALSE,FALSE,"Landeks"
"231","9115909c858d487ba962a3c2ed2a9880","uninterrupted",6,6433,"critical","flood their fields to plant fujusi","response_1",0.9,"query",FALSE,FALSE,"Agriculture"
"232","9115909c858d487ba962a3c2ed2a9880","uninterrupted",8,3913,"critical","wear wutsats around their heads","response_1",0.9,"query",FALSE,FALSE,"Reesles"
"233","9115909c858d487ba962a3c2ed2a9880","nme_uninterrupted",9,4571,"critical","have territories at the tops of tall mountains","response_1",0.99,"query",FALSE,FALSE,"Mooks"
"234","9115909c858d487ba962a3c2ed2a9880","interrupted",10,4792,"critical","have six wings","response_1",0.99,"query",FALSE,FALSE,"Batozes"
"235","9115909c858d487ba962a3c2ed2a9880","interrupted",12,2490,"critical","produce fruit with bumpy skin","response_1",1,"query",FALSE,FALSE,"Isooms"
"236","9115909c858d487ba962a3c2ed2a9880","nme_uninterrupted",14,7197,"critical","carry their young in guklags","response_1",0.9,"query",FALSE,FALSE,"Ollers"
"237","9115909c858d487ba962a3c2ed2a9880","interrupted",15,6650,"critical","hibernate in fallen logs","response_1",0.8,"query",FALSE,FALSE,"Vimbles"
"238","9115909c858d487ba962a3c2ed2a9880","uninterrupted",17,9044,"critical","chew on xorfun","response_1",0.5,"query",FALSE,FALSE,"Kweps"
"239","9115909c858d487ba962a3c2ed2a9880","nme_interrupted",18,6641,"critical","are stup-herders","response_1",0.99,"query",FALSE,FALSE,"Finding food"
"240","9115909c858d487ba962a3c2ed2a9880","uninterrupted",20,7047,"critical","have long wings","response_1",0.5,"query",FALSE,FALSE,"Lorches"
"241","ba2747149e90bf13d59044d684927428","uninterrupted",4,11605,"critical","have four horns","response_1",0.5,"query",FALSE,FALSE,"Landeks"
"242","ba2747149e90bf13d59044d684927428","nme_uninterrupted",5,15766,"critical","have territories at the tops of tall mountains","response_1",0.75,"query",FALSE,FALSE,"Mooks"
"243","ba2747149e90bf13d59044d684927428","uninterrupted",6,10303,"critical","chew on xorfun","response_1",0.99,"query",FALSE,FALSE,"Kweps"
"244","ba2747149e90bf13d59044d684927428","interrupted",8,3616,"critical","have long wings","response_1",0.99,"query",FALSE,FALSE,"Lorches"
"245","ba2747149e90bf13d59044d684927428","nme_interrupted",10,4771,"critical","hibernate in fallen logs","response_1",0.98,"query",FALSE,FALSE,"Vimbles"
"246","ba2747149e90bf13d59044d684927428","uninterrupted",12,8057,"critical","ascribe to the Caboo religion","response_1",0.5,"query",FALSE,FALSE,"Ludinos"
"247","ba2747149e90bf13d59044d684927428","uninterrupted",14,6177,"critical","build nests in gluers","response_1",0.99,"query",FALSE,FALSE,"Fengnors"
"248","ba2747149e90bf13d59044d684927428","nme_interrupted",15,14968,"critical","wear wutsats around their heads","response_1",0.75,"query",FALSE,FALSE,"Reesles"
"249","ba2747149e90bf13d59044d684927428","interrupted",16,10440,"critical","flood their fields to plant fujusi","response_1",0.99,"query",FALSE,FALSE,"Agriculture"
"250","ba2747149e90bf13d59044d684927428","nme_uninterrupted",17,4999,"critical","have striped fur","response_1",0.97,"query",FALSE,FALSE,"Kaples"
"251","ba2747149e90bf13d59044d684927428","interrupted",18,4248,"critical","live on the continent of Caro","response_1",0.99,"query",FALSE,FALSE,"Glippets"
"252","ba2747149e90bf13d59044d684927428","interrupted",20,5631,"critical","carry their young in guklags","response_1",0.99,"query",FALSE,FALSE,"Ollers"
"253","3c1d3dced02667537f6e8124b33cf77f","interrupted",4,3550,"critical","are part of the Tinno guild","response_1",0.86,"query",FALSE,FALSE,"Crafts"
"254","3c1d3dced02667537f6e8124b33cf77f","nme_uninterrupted",5,6687,"critical","hibernate in fallen logs","response_1",0.93,"query",FALSE,FALSE,"Vimbles"
"255","3c1d3dced02667537f6e8124b33cf77f","interrupted",6,4810,"critical","carry their young in guklags","response_1",0.98,"query",FALSE,FALSE,"Ollers"
"256","3c1d3dced02667537f6e8124b33cf77f","uninterrupted",8,3693,"critical","are stup-herders","response_1",0.77,"query",FALSE,FALSE,"Finding food"
"257","3c1d3dced02667537f6e8124b33cf77f","nme_interrupted",9,5366,"critical","live on the continent of Caro","response_1",0.67,"query",FALSE,FALSE,"Glippets"
"258","3c1d3dced02667537f6e8124b33cf77f","uninterrupted",10,3708,"critical","build nests in gluers","response_1",0.98,"query",FALSE,FALSE,"Fengnors"
"259","3c1d3dced02667537f6e8124b33cf77f","nme_interrupted",11,3996,"critical","have long wings","response_1",0.99,"query",FALSE,FALSE,"Lorches"
"260","3c1d3dced02667537f6e8124b33cf77f","interrupted",14,3770,"critical","have striped fur","response_1",0.99,"query",FALSE,FALSE,"Kaples"
"261","3c1d3dced02667537f6e8124b33cf77f","interrupted",16,5039,"critical","have four horns","response_1",0.97,"query",FALSE,FALSE,"Landeks"
"262","3c1d3dced02667537f6e8124b33cf77f","nme_uninterrupted",17,2965,"critical","ascribe to the Caboo religion","response_1",1,"query",FALSE,FALSE,"Ludinos"
"263","3c1d3dced02667537f6e8124b33cf77f","uninterrupted",18,5015,"critical","produce fruit with bumpy skin","response_1",0.57,"query",FALSE,FALSE,"Isooms"
"264","3c1d3dced02667537f6e8124b33cf77f","uninterrupted",20,4154,"critical","flood their fields to plant fujusi","response_1",0.98,"query",FALSE,FALSE,"Agriculture"
"265","e7922efe6f64a2d4bb46b211aeb26095","interrupted",3,6511,"critical","are part of the Tinno guild","response_1",1,"query",FALSE,FALSE,"Crafts"
"266","e7922efe6f64a2d4bb46b211aeb26095","interrupted",5,13584,"critical","wear wutsats around their heads","response_1",1,"query",FALSE,FALSE,"Reesles"
"267","e7922efe6f64a2d4bb46b211aeb26095","nme_uninterrupted",7,2904,"critical","have long wings","response_1",1,"query",FALSE,FALSE,"Lorches"
"268","e7922efe6f64a2d4bb46b211aeb26095","uninterrupted",8,3400,"critical","flood their fields to plant fujusi","response_1",1,"query",FALSE,FALSE,"Agriculture"
"269","e7922efe6f64a2d4bb46b211aeb26095","interrupted",10,3552,"critical","produce fruit with bumpy skin","response_1",1,"query",FALSE,FALSE,"Isooms"
"270","e7922efe6f64a2d4bb46b211aeb26095","nme_interrupted",11,4671,"critical","have territories at the tops of tall mountains","response_1",1,"query",FALSE,FALSE,"Mooks"
"271","e7922efe6f64a2d4bb46b211aeb26095","uninterrupted",12,3567,"critical","ascribe to the Caboo religion","response_1",1,"query",FALSE,FALSE,"Ludinos"
"272","e7922efe6f64a2d4bb46b211aeb26095","nme_interrupted",15,2736,"critical","have four horns","response_1",1,"query",FALSE,FALSE,"Landeks"
"273","e7922efe6f64a2d4bb46b211aeb26095","uninterrupted",16,3440,"critical","chew on xorfun","response_1",1,"query",FALSE,FALSE,"Kweps"
"274","e7922efe6f64a2d4bb46b211aeb26095","nme_uninterrupted",17,3512,"critical","hibernate in fallen logs","response_1",0.91,"query",FALSE,FALSE,"Vimbles"
"275","e7922efe6f64a2d4bb46b211aeb26095","interrupted",18,3953,"critical","carry their young in guklags","response_1",1,"query",FALSE,FALSE,"Ollers"
"276","e7922efe6f64a2d4bb46b211aeb26095","uninterrupted",20,2600,"critical","have striped fur","response_1",1,"query",FALSE,FALSE,"Kaples"
"277","3747e1ec631a24e3f5e7d7ec5a0bec52","uninterrupted",3,7640,"critical","wear wutsats around their heads","response_1",0.6,"query",FALSE,FALSE,"Reesles"
"278","3747e1ec631a24e3f5e7d7ec5a0bec52","nme_uninterrupted",4,7808,"critical","live on the continent of Caro","response_1",0.75,"query",FALSE,FALSE,"Glippets"
"279","3747e1ec631a24e3f5e7d7ec5a0bec52","uninterrupted",5,6088,"critical","have long wings","response_1",0.5,"query",FALSE,FALSE,"Lorches"
"280","3747e1ec631a24e3f5e7d7ec5a0bec52","interrupted",7,7386,"critical","have territories at the tops of tall mountains","response_1",0.9,"query",FALSE,FALSE,"Mooks"
"281","3747e1ec631a24e3f5e7d7ec5a0bec52","nme_interrupted",8,4952,"critical","have striped fur","response_1",0.95,"query",FALSE,FALSE,"Kaples"
"282","3747e1ec631a24e3f5e7d7ec5a0bec52","interrupted",10,6009,"critical","carry their young in guklags","response_1",0.9,"query",FALSE,FALSE,"Ollers"
"283","3747e1ec631a24e3f5e7d7ec5a0bec52","uninterrupted",12,6056,"critical","have six wings","response_1",0.65,"query",FALSE,FALSE,"Batozes"
"284","3747e1ec631a24e3f5e7d7ec5a0bec52","nme_uninterrupted",14,6016,"critical","are part of the Tinno guild","response_1",0.75,"query",FALSE,FALSE,"Crafts"
"285","3747e1ec631a24e3f5e7d7ec5a0bec52","interrupted",15,6264,"critical","hibernate in fallen logs","response_1",0.85,"query",FALSE,FALSE,"Vimbles"
"286","3747e1ec631a24e3f5e7d7ec5a0bec52","nme_interrupted",17,7072,"critical","are stup-herders","response_1",0.65,"query",FALSE,FALSE,"Finding food"
"287","3747e1ec631a24e3f5e7d7ec5a0bec52","uninterrupted",18,6136,"critical","build nests in gluers","response_1",0.45,"query",FALSE,FALSE,"Fengnors"
"288","3747e1ec631a24e3f5e7d7ec5a0bec52","interrupted",20,5104,"critical","ascribe to the Caboo religion","response_1",0.7,"query",FALSE,FALSE,"Ludinos"
"289","43d7f2586e9210aa3b5f9735ee6020c2","interrupted",3,5552,"critical","have long wings","response_1",0.98,"query",FALSE,FALSE,"Lorches"
"290","43d7f2586e9210aa3b5f9735ee6020c2","uninterrupted",5,4962,"critical","are part of the Tinno guild","response_1",0.63,"query",FALSE,FALSE,"Crafts"
"291","43d7f2586e9210aa3b5f9735ee6020c2","interrupted",7,5756,"critical","live on the continent of Caro","response_1",0.92,"query",FALSE,FALSE,"Glippets"
"292","43d7f2586e9210aa3b5f9735ee6020c2","nme_interrupted",8,4659,"critical","hibernate in fallen logs","response_1",0.98,"query",FALSE,FALSE,"Vimbles"
"293","43d7f2586e9210aa3b5f9735ee6020c2","interrupted",10,5450,"critical","wear wutsats around their heads","response_1",0.92,"query",FALSE,FALSE,"Reesles"
"294","43d7f2586e9210aa3b5f9735ee6020c2","nme_interrupted",12,3951,"critical","have striped fur","response_1",0.98,"query",FALSE,FALSE,"Kaples"
"295","43d7f2586e9210aa3b5f9735ee6020c2","interrupted",13,5371,"critical","produce fruit with bumpy skin","response_1",0.97,"query",FALSE,FALSE,"Isooms"
"296","43d7f2586e9210aa3b5f9735ee6020c2","nme_uninterrupted",14,5642,"critical","have four horns","response_1",0.99,"query",FALSE,FALSE,"Landeks"
"297","43d7f2586e9210aa3b5f9735ee6020c2","uninterrupted",15,4362,"critical","chew on xorfun","response_1",0.91,"query",FALSE,FALSE,"Kweps"
"298","43d7f2586e9210aa3b5f9735ee6020c2","nme_uninterrupted",16,4896,"critical","flood their fields to plant fujusi","response_1",0.96,"query",FALSE,FALSE,"Agriculture"
"299","43d7f2586e9210aa3b5f9735ee6020c2","uninterrupted",17,5031,"critical","are stup-herders","response_1",0.91,"query",FALSE,FALSE,"Finding food"
"300","43d7f2586e9210aa3b5f9735ee6020c2","uninterrupted",20,5648,"critical","ascribe to the Caboo religion","response_1",0.83,"query",FALSE,FALSE,"Ludinos"
"301","f43829ab257c85972e98da461336fa8a","uninterrupted",3,6250,"critical","live on the continent of Caro","response_1",0.5,"query",FALSE,FALSE,"Glippets"
"302","f43829ab257c85972e98da461336fa8a","nme_interrupted",4,4494,"critical","have six wings","response_1",1,"query",FALSE,FALSE,"Batozes"
"303","f43829ab257c85972e98da461336fa8a","interrupted",5,4524,"critical","have territories at the tops of tall mountains","response_1",1,"query",FALSE,FALSE,"Mooks"
"304","f43829ab257c85972e98da461336fa8a","nme_uninterrupted",6,3774,"critical","are stup-herders","response_1",0.99,"query",FALSE,FALSE,"Finding food"
"305","f43829ab257c85972e98da461336fa8a","uninterrupted",8,4454,"critical","build nests in gluers","response_1",0.66,"query",FALSE,FALSE,"Fengnors"
"306","f43829ab257c85972e98da461336fa8a","interrupted",10,4453,"critical","hibernate in fallen logs","response_1",0.98,"query",FALSE,FALSE,"Vimbles"
"307","f43829ab257c85972e98da461336fa8a","nme_interrupted",11,3295,"critical","have four horns","response_1",1,"query",FALSE,FALSE,"Landeks"
"308","f43829ab257c85972e98da461336fa8a","uninterrupted",12,5255,"critical","have striped fur","response_1",0.33,"query",FALSE,FALSE,"Kaples"
"309","f43829ab257c85972e98da461336fa8a","nme_uninterrupted",14,3766,"critical","produce fruit with bumpy skin","response_1",0.94,"query",FALSE,FALSE,"Isooms"
"310","f43829ab257c85972e98da461336fa8a","interrupted",15,4336,"critical","wear wutsats around their heads","response_1",0.82,"query",FALSE,FALSE,"Reesles"
"311","f43829ab257c85972e98da461336fa8a","uninterrupted",18,3134,"critical","have long wings","response_1",1,"query",FALSE,FALSE,"Lorches"
"312","f43829ab257c85972e98da461336fa8a","interrupted",20,4044,"critical","ascribe to the Caboo religion","response_1",1,"query",FALSE,FALSE,"Ludinos"
"313","f612b02b92fe76c3141f72c620f34ab4","interrupted",3,5469,"critical","carry their young in guklags","response_1",1,"query",FALSE,FALSE,"Ollers"
"314","f612b02b92fe76c3141f72c620f34ab4","nme_uninterrupted",4,8599,"critical","build nests in gluers","response_1",0,"query",FALSE,FALSE,"Fengnors"
"315","f612b02b92fe76c3141f72c620f34ab4","interrupted",5,5512,"critical","flood their fields to plant fujusi","response_1",0.99,"query",FALSE,FALSE,"Agriculture"
"316","f612b02b92fe76c3141f72c620f34ab4","uninterrupted",7,4691,"critical","have territories at the tops of tall mountains","response_1",0.5,"query",FALSE,FALSE,"Mooks"
"317","f612b02b92fe76c3141f72c620f34ab4","nme_uninterrupted",9,3911,"critical","live on the continent of Caro","response_1",0.99,"query",FALSE,FALSE,"Glippets"
"318","f612b02b92fe76c3141f72c620f34ab4","uninterrupted",12,3584,"critical","have striped fur","response_1",0.52,"query",FALSE,FALSE,"Kaples"
"319","f612b02b92fe76c3141f72c620f34ab4","nme_interrupted",13,3721,"critical","have six wings","response_1",0.99,"query",FALSE,FALSE,"Batozes"
"320","f612b02b92fe76c3141f72c620f34ab4","uninterrupted",14,3330,"critical","ascribe to the Caboo religion","response_1",0.51,"query",FALSE,FALSE,"Ludinos"
"321","f612b02b92fe76c3141f72c620f34ab4","uninterrupted",16,5135,"critical","are stup-herders","response_1",0.47,"query",FALSE,FALSE,"Finding food"
"322","f612b02b92fe76c3141f72c620f34ab4","nme_interrupted",17,4909,"critical","wear wutsats around their heads","response_1",0.99,"query",FALSE,FALSE,"Reesles"
"323","f612b02b92fe76c3141f72c620f34ab4","interrupted",18,4366,"critical","chew on xorfun","response_1",0.99,"query",FALSE,FALSE,"Kweps"
"324","f612b02b92fe76c3141f72c620f34ab4","interrupted",20,5859,"critical","are part of the Tinno guild","response_1",0.64,"query",FALSE,FALSE,"Crafts"
"325","1c578c7a4cde35e3a0c6cd33bb0f3de2","uninterrupted",3,8047,"critical","hibernate in fallen logs","response_1",0.51,"query",FALSE,FALSE,"Vimbles"
"326","1c578c7a4cde35e3a0c6cd33bb0f3de2","nme_interrupted",4,6327,"critical","carry their young in guklags","response_1",0.8,"query",FALSE,FALSE,"Ollers"
"327","1c578c7a4cde35e3a0c6cd33bb0f3de2","nme_uninterrupted",5,9334,"critical","live on the continent of Caro","response_1",1,"query",FALSE,FALSE,"Glippets"
"328","1c578c7a4cde35e3a0c6cd33bb0f3de2","interrupted",6,4078,"critical","have territories at the tops of tall mountains","response_1",1,"query",FALSE,FALSE,"Mooks"
"329","1c578c7a4cde35e3a0c6cd33bb0f3de2","uninterrupted",8,5410,"critical","have long wings","response_1",0.5,"query",FALSE,FALSE,"Lorches"
"330","1c578c7a4cde35e3a0c6cd33bb0f3de2","nme_interrupted",9,8425,"critical","build nests in gluers","response_1",0.97,"query",FALSE,FALSE,"Fengnors"
"331","1c578c7a4cde35e3a0c6cd33bb0f3de2","uninterrupted",10,5795,"critical","are part of the Tinno guild","response_1",0.5,"query",FALSE,FALSE,"Crafts"
"332","1c578c7a4cde35e3a0c6cd33bb0f3de2","uninterrupted",13,12087,"critical","flood their fields to plant fujusi","response_1",0.95,"query",FALSE,FALSE,"Agriculture"
"333","1c578c7a4cde35e3a0c6cd33bb0f3de2","interrupted",15,6548,"critical","produce fruit with bumpy skin","response_1",0.9,"query",FALSE,FALSE,"Isooms"
"334","1c578c7a4cde35e3a0c6cd33bb0f3de2","nme_uninterrupted",16,9599,"critical","are stup-herders","response_1",0.6,"query",FALSE,FALSE,"Finding food"
"335","1c578c7a4cde35e3a0c6cd33bb0f3de2","interrupted",17,5963,"critical","ascribe to the Caboo religion","response_1",0.8,"query",FALSE,FALSE,"Ludinos"
"336","1c578c7a4cde35e3a0c6cd33bb0f3de2","interrupted",19,6714,"critical","have striped fur","response_1",0.96,"query",FALSE,FALSE,"Kaples"
"337","f9279760dd0462766df30431e418e7f0","interrupted",3,3576,"critical","are stup-herders","response_1",1,"query",FALSE,FALSE,"Finding food"
"338","f9279760dd0462766df30431e418e7f0","interrupted",5,2689,"critical","have six wings","response_1",1,"query",FALSE,FALSE,"Batozes"
"339","f9279760dd0462766df30431e418e7f0","uninterrupted",7,5936,"critical","live on the continent of Caro","response_1",0.6,"query",FALSE,FALSE,"Glippets"
"340","f9279760dd0462766df30431e418e7f0","uninterrupted",9,2912,"critical","chew on xorfun","response_1",1,"query",FALSE,FALSE,"Kweps"
"341","f9279760dd0462766df30431e418e7f0","nme_uninterrupted",11,2784,"critical","hibernate in fallen logs","response_1",1,"query",FALSE,FALSE,"Vimbles"
"342","f9279760dd0462766df30431e418e7f0","interrupted",12,4592,"critical","flood their fields to plant fujusi","response_1",1,"query",FALSE,FALSE,"Agriculture"
"343","f9279760dd0462766df30431e418e7f0","nme_interrupted",15,2167,"critical","have striped fur","response_1",1,"query",FALSE,FALSE,"Kaples"
"344","f9279760dd0462766df30431e418e7f0","uninterrupted",16,3760,"critical","are part of the Tinno guild","response_1",0.5,"query",FALSE,FALSE,"Crafts"
"345","f9279760dd0462766df30431e418e7f0","nme_interrupted",17,3240,"critical","ascribe to the Caboo religion","response_1",1,"query",FALSE,FALSE,"Ludinos"
"346","f9279760dd0462766df30431e418e7f0","uninterrupted",18,4200,"critical","have long wings","response_1",1,"query",FALSE,FALSE,"Lorches"
"347","f9279760dd0462766df30431e418e7f0","nme_uninterrupted",19,2176,"critical","have four horns","response_1",1,"query",FALSE,FALSE,"Landeks"
"348","f9279760dd0462766df30431e418e7f0","interrupted",20,2488,"critical","wear wutsats around their heads","response_1",1,"query",FALSE,FALSE,"Reesles"
"349","a0ec94db1fda5c197a78f5a153474ded","interrupted",3,14535,"critical","live on the continent of Caro","response_1",1,"query",FALSE,FALSE,"Glippets"
"350","a0ec94db1fda5c197a78f5a153474ded","uninterrupted",5,42775,"critical","wear wutsats around their heads","response_1",0.8,"query",FALSE,FALSE,"Reesles"
"351","a0ec94db1fda5c197a78f5a153474ded","nme_uninterrupted",6,9000,"critical","hibernate in fallen logs","response_1",1,"query",FALSE,FALSE,"Vimbles"
"352","a0ec94db1fda5c197a78f5a153474ded","uninterrupted",7,18383,"critical","have territories at the tops of tall mountains","response_1",0.5,"query",FALSE,FALSE,"Mooks"
"353","a0ec94db1fda5c197a78f5a153474ded","nme_interrupted",9,3375,"critical","have long wings","response_1",1,"query",FALSE,FALSE,"Lorches"
"354","a0ec94db1fda5c197a78f5a153474ded","uninterrupted",11,3881,"critical","are part of the Tinno guild","response_1",0.5,"query",FALSE,FALSE,"Crafts"
"355","a0ec94db1fda5c197a78f5a153474ded","interrupted",13,27980,"critical","chew on xorfun","response_1",1,"query",FALSE,FALSE,"Kweps"
"356","a0ec94db1fda5c197a78f5a153474ded","nme_uninterrupted",14,3037,"critical","ascribe to the Caboo religion","response_1",1,"query",FALSE,FALSE,"Ludinos"
"357","a0ec94db1fda5c197a78f5a153474ded","interrupted",15,3027,"critical","have six wings","response_1",1,"query",FALSE,FALSE,"Batozes"
"358","a0ec94db1fda5c197a78f5a153474ded","interrupted",17,2881,"critical","have striped fur","response_1",1,"query",FALSE,FALSE,"Kaples"
"359","a0ec94db1fda5c197a78f5a153474ded","nme_interrupted",18,4591,"critical","are stup-herders","response_1",1,"query",FALSE,FALSE,"Finding food"
"360","a0ec94db1fda5c197a78f5a153474ded","uninterrupted",19,3893,"critical","produce fruit with bumpy skin","response_1",0.5,"query",FALSE,FALSE,"Isooms"
"361","499408e263f059d2a631a51d3045ed71","uninterrupted",4,8680,"critical","hibernate in fallen logs","response_1",0.67,"query",FALSE,FALSE,"Vimbles"
"362","499408e263f059d2a631a51d3045ed71","uninterrupted",6,39879,"critical","flood their fields to plant fujusi","response_1",0.93,"query",FALSE,FALSE,"Agriculture"
"363","499408e263f059d2a631a51d3045ed71","interrupted",8,7008,"critical","carry their young in guklags","response_1",0.95,"query",FALSE,FALSE,"Ollers"
"364","499408e263f059d2a631a51d3045ed71","uninterrupted",10,6185,"critical","have striped fur","response_1",0.51,"query",FALSE,FALSE,"Kaples"
"365","499408e263f059d2a631a51d3045ed71","nme_uninterrupted",11,5440,"critical","have four horns","response_1",1,"query",FALSE,FALSE,"Landeks"
"366","499408e263f059d2a631a51d3045ed71","uninterrupted",12,5864,"critical","live on the continent of Caro","response_1",0.51,"query",FALSE,FALSE,"Glippets"
"367","499408e263f059d2a631a51d3045ed71","interrupted",14,5616,"critical","have six wings","response_1",1,"query",FALSE,FALSE,"Batozes"
"368","499408e263f059d2a631a51d3045ed71","nme_interrupted",15,6719,"critical","chew on xorfun","response_1",0.97,"query",FALSE,FALSE,"Kweps"
"369","499408e263f059d2a631a51d3045ed71","interrupted",16,9224,"critical","are part of the Tinno guild","response_1",0.91,"query",FALSE,FALSE,"Crafts"
"370","499408e263f059d2a631a51d3045ed71","nme_uninterrupted",17,4496,"critical","produce fruit with bumpy skin","response_1",0.99,"query",FALSE,FALSE,"Isooms"
"371","499408e263f059d2a631a51d3045ed71","interrupted",19,4472,"critical","are stup-herders","response_1",0.92,"query",FALSE,FALSE,"Finding food"
"372","499408e263f059d2a631a51d3045ed71","nme_interrupted",20,5568,"critical","have territories at the tops of tall mountains","response_1",0.86,"query",FALSE,FALSE,"Mooks"
"373","f6958de509ed98ff83d90d042f1778be","interrupted",3,5894,"critical","have striped fur","response_1",0.99,"query",FALSE,FALSE,"Kaples"
"374","f6958de509ed98ff83d90d042f1778be","uninterrupted",5,5748,"critical","build nests in gluers","response_1",0.5,"query",FALSE,FALSE,"Fengnors"
"375","f6958de509ed98ff83d90d042f1778be","nme_interrupted",7,3046,"critical","have territories at the tops of tall mountains","response_1",1,"query",FALSE,FALSE,"Mooks"
"376","f6958de509ed98ff83d90d042f1778be","uninterrupted",8,4871,"critical","produce fruit with bumpy skin","response_1",0.5,"query",FALSE,FALSE,"Isooms"
"377","f6958de509ed98ff83d90d042f1778be","nme_uninterrupted",9,2929,"critical","carry their young in guklags","response_1",1,"query",FALSE,FALSE,"Ollers"
"378","f6958de509ed98ff83d90d042f1778be","interrupted",11,2921,"critical","are stup-herders","response_1",1,"query",FALSE,FALSE,"Finding food"
"379","f6958de509ed98ff83d90d042f1778be","nme_uninterrupted",13,2843,"critical","flood their fields to plant fujusi","response_1",1,"query",FALSE,FALSE,"Agriculture"
"380","f6958de509ed98ff83d90d042f1778be","uninterrupted",14,11351,"critical","ascribe to the Caboo religion","response_1",0.5,"query",FALSE,FALSE,"Ludinos"
"381","f6958de509ed98ff83d90d042f1778be","nme_interrupted",15,2686,"critical","live on the continent of Caro","response_1",1,"query",FALSE,FALSE,"Glippets"
"382","f6958de509ed98ff83d90d042f1778be","interrupted",16,2667,"critical","are part of the Tinno guild","response_1",1,"query",FALSE,FALSE,"Crafts"
"383","f6958de509ed98ff83d90d042f1778be","uninterrupted",18,6130,"critical","chew on xorfun","response_1",0.75,"query",FALSE,FALSE,"Kweps"
"384","f6958de509ed98ff83d90d042f1778be","interrupted",20,3287,"critical","hibernate in fallen logs","response_1",1,"query",FALSE,FALSE,"Vimbles"
"385","e66a55b9ebd2829e575e4790d9b4b936","uninterrupted",3,7252,"critical","wear wutsats around their heads","response_1",0.81,"query",FALSE,FALSE,"Reesles"
"386","e66a55b9ebd2829e575e4790d9b4b936","nme_interrupted",5,4046,"critical","produce fruit with bumpy skin","response_1",0.75,"query",FALSE,FALSE,"Isooms"
"387","e66a55b9ebd2829e575e4790d9b4b936","interrupted",6,4240,"critical","have long wings","response_1",0.81,"query",FALSE,FALSE,"Lorches"
"388","e66a55b9ebd2829e575e4790d9b4b936","interrupted",9,4877,"critical","carry their young in guklags","response_1",0.69,"query",FALSE,FALSE,"Ollers"
"389","e66a55b9ebd2829e575e4790d9b4b936","nme_interrupted",10,4925,"critical","have four horns","response_1",1,"query",FALSE,FALSE,"Landeks"
"390","e66a55b9ebd2829e575e4790d9b4b936","uninterrupted",11,14351,"critical","have six wings","response_1",0.72,"query",FALSE,FALSE,"Batozes"
"391","e66a55b9ebd2829e575e4790d9b4b936","uninterrupted",13,3416,"critical","flood their fields to plant fujusi","response_1",0.65,"query",FALSE,FALSE,"Agriculture"
"392","e66a55b9ebd2829e575e4790d9b4b936","nme_uninterrupted",14,5106,"critical","are stup-herders","response_1",0.59,"query",FALSE,FALSE,"Finding food"
"393","e66a55b9ebd2829e575e4790d9b4b936","interrupted",15,6601,"critical","have territories at the tops of tall mountains","response_1",0.88,"query",FALSE,FALSE,"Mooks"
"394","e66a55b9ebd2829e575e4790d9b4b936","nme_uninterrupted",16,7734,"critical","hibernate in fallen logs","response_1",0.97,"query",FALSE,FALSE,"Vimbles"
"395","e66a55b9ebd2829e575e4790d9b4b936","interrupted",17,5826,"critical","are part of the Tinno guild","response_1",0.68,"query",FALSE,FALSE,"Crafts"
"396","e66a55b9ebd2829e575e4790d9b4b936","uninterrupted",20,12102,"critical","build nests in gluers","response_1",0.69,"query",FALSE,FALSE,"Fengnors"
