"","trial_type","page_type","condition","chapter_num","page_num","page_content","rt","kind","predicate_1","predicate_2","question_order","chapter","quantifier","query_predicate_1","query_predicate_2","workerid","memory_fail","slider_fail","bad_expln","n_correct","key","val"
"1","filler","query","uninterrupted",1,3,"",18533,"wopis","live in the desert","are very hard to find","same","Wopis","all","live in the desert","are very hard to find",0,FALSE,FALSE,FALSE,10,"response_1",1
"2","filler","query","uninterrupted",2,3,"",11118,"supools","live in the oceans","live for a very long time","reverse","Supools","all","live in the oceans","live for a very long time",0,FALSE,FALSE,FALSE,10,"response_1",1
"3","critical","query","interrupted",3,-1,"",17614,"fengnor mated pairs","build nests in gluers","build nests in droops","same","Fengnors","all","build nests in gluers","build nests in droops",0,FALSE,FALSE,FALSE,10,"response_1",1
"4","filler","query","interrupted",4,-1,"",12596,"plovs","live in the continent of Aga","are attacked by other creatures","same","Plovs","none","live in the continent of Aga","are attacked by other creatures",0,FALSE,FALSE,FALSE,10,"response_1",0
"5","critical","query","nme_interrupted",5,-1,"",8943,"basket weavers","are part of the Tinnoclan","are part of the Farzaguild","same","Crafts","all","are part of the Tinnoclan","sell their baskets in the Warfi marketplace",0,FALSE,FALSE,FALSE,10,"response_1",1
"6","critical","query","uninterrupted",6,5,"",8969,"mooks","have territories at the tops of tall mountains","have territories at the bottom of deep canyons","same","Mooks","all","have territories at the tops of tall mountains","have territories at the bottom of deep canyons",0,FALSE,FALSE,FALSE,10,"response_1",1
"7","filler","query","interrupted",7,-1,"",15790,"aliens","find apaffs cute","tolerate apaffs to some extent","reverse","Apaffs","most","find apaffs cute","tolerate apaffs to some extent",0,FALSE,FALSE,FALSE,10,"response_1",0.8
"8","critical","query","nme_uninterrupted",8,3,"",7287,"Ludinos","ascribe to Cabooism","ascribe to Daithism","same","Religion","all","ascribe to Cabooism","pray three times a day",0,FALSE,FALSE,FALSE,10,"response_1",1
"9","critical","query","interrupted",9,-1,"",12022,"kweps","chew on xorfun bark","chew on tunkel bark","same","Kweps","all","chew on xorfun bark","chew on tunkel bark",0,FALSE,FALSE,FALSE,10,"response_1",1
"10","critical","query","nme_interrupted",10,-1,"",12168,"vimble queens","hibernate in fallen logs","hibernate in the abandoned burrows of other animals","same","Vimbles","all","hibernate in fallen logs","give birth twice a year",0,FALSE,FALSE,FALSE,10,"response_1",1
"11","critical","query","uninterrupted",11,3,"",9941,"isooms","produce fruit with bumpy skin","produce fruit with smooth skin","same","Isooms","all","produce fruit with bumpy skin","produce fruit with smooth skin",0,FALSE,FALSE,FALSE,10,"response_1",1
"12","filler","query","uninterrupted",12,4,"",11908,"ice storms on Dax","result in permanent damage to the plants and animals on Dax","last a long time","same","Weather","none","result in permanent damage to the plants and animals on Dax","last a long time",0,FALSE,FALSE,FALSE,10,"response_1",0
"13","critical","query","uninterrupted",13,4,"",8097,"lorches","have long wings","have short wings","same","Lorches","all","have long wings","have short wings",0,FALSE,FALSE,FALSE,10,"response_1",1
"14","filler","query","uninterrupted",14,3,"",12558,"mupors","live in extended family groups","build large triangular rebos","reverse","Mupors","most","live in extended family groups","build large triangular rebos",0,FALSE,FALSE,FALSE,10,"response_1",1
"15","critical","query","uninterrupted",15,5,"",7147,"Krens","are stup-herders","are fishermen","same","Finding food","all","are stup-herders","are fishermen",0,FALSE,FALSE,FALSE,10,"response_1",1
"16","critical","query","nme_uninterrupted",16,3,"",9170,"glippets","live on the continent of Caro","live on the continent of Este","same","Glippets","all","live on the continent of Caro","graze on the tall grasses",0,FALSE,FALSE,FALSE,10,"response_1",1
"17","filler","query","interrupted",17,-1,"",18188,"lodeks","only bloom for one day a year","have purple petals","reverse","Nannus","most","only bloom for one day a year","have purple petals",0,FALSE,FALSE,FALSE,10,"response_1",1
"18","critical","query","interrupted",18,-1,"",9021,"farmers in the springtime","plant fujusi","plant soroneeks","same","Agriculture","all","plant fujusi","plant soroneeks",0,FALSE,FALSE,FALSE,10,"response_1",1
"19","filler","query","uninterrupted",19,3,"",6429,"blins","have hollow bones","fly","reverse","Blins","all","have hollow bones","fly",0,FALSE,FALSE,FALSE,10,"response_1",1
"20","critical","query","interrupted",20,-1,"",9191,"reesles","wear wutsats around their heads","wear krevnors around their heads","same","Reesles","all","wear wutsats around their heads","wear krevnors around their heads",0,FALSE,FALSE,FALSE,10,"response_1",1
"21","filler","query","uninterrupted",1,4,"",11468,"morseths","build permanent structures called fendles","come on land to find mates","reverse","Morseths","most","build permanent structures called fendles","come on land to find mates",1,FALSE,FALSE,FALSE,9,"response_1",1
"22","filler","query","uninterrupted",2,3,"",7113,"wopis","live in the desert","are very hard to find","reverse","Wopis","all","live in the desert","are very hard to find",1,FALSE,FALSE,FALSE,9,"response_1",1
"23","critical","query","nme_interrupted",3,-1,"",5675,"oller families","carry their young in guklags","carry their young in trullets","same","Ollers","all","carry their young in guklags","are very protective",1,FALSE,FALSE,FALSE,9,"response_1",0.97
"24","critical","query","uninterrupted",4,4,"",7503,"vimble queens","hibernate in fallen logs","hibernate in the abandoned burrows of other animals","same","Vimbles","all","hibernate in fallen logs","hibernate in the abandoned burrows of other animals",1,FALSE,FALSE,FALSE,9,"response_1",0.87
"25","filler","query","uninterrupted",5,4,"",9483,"lodeks","only bloom for one day a year","have purple petals","reverse","Nannus","most","only bloom for one day a year","have purple petals",1,FALSE,FALSE,FALSE,9,"response_1",0.85
"26","filler","query","interrupted",6,-1,"",6758,"blins","have hollow bones","fly","same","Blins","all","have hollow bones","fly",1,FALSE,FALSE,FALSE,9,"response_1",1
"27","critical","query","interrupted",7,-1,"",7889,"mooks","have territories at the tops of tall mountains","have territories at the bottom of deep canyons","same","Mooks","all","have territories at the tops of tall mountains","have territories at the bottom of deep canyons",1,FALSE,FALSE,FALSE,9,"response_1",1
"28","critical","query","nme_uninterrupted",8,5,"",6663,"basket weavers","are part of the Tinnoclan","are part of the Farzaguild","same","Crafts","all","are part of the Tinnoclan","sell their baskets in the Warfi marketplace",1,FALSE,FALSE,FALSE,9,"response_1",1
"29","critical","query","interrupted",9,-1,"",5800,"Ludinos","ascribe to Cabooism","ascribe to Daithism","same","Religion","all","ascribe to Cabooism","ascribe to Daithism",1,FALSE,FALSE,FALSE,9,"response_1",1
"30","filler","query","interrupted",10,-1,"",5788,"animals","eat kazzes","come close to kazzes","same","Kazzes","none","eat kazzes","come close to kazzes",1,FALSE,FALSE,FALSE,9,"response_1",0
"31","critical","query","uninterrupted",11,5,"",6950,"farmers in the springtime","plant fujusi","plant soroneeks","same","Agriculture","all","plant fujusi","plant soroneeks",1,FALSE,FALSE,FALSE,9,"response_1",1
"32","critical","query","nme_uninterrupted",12,4,"",4869,"fengnor mated pairs","build nests in gluers","build nests in droops","same","Fengnors","all","build nests in gluers","store tree-bark in them for safe keeping",1,FALSE,FALSE,FALSE,9,"response_1",0.91
"33","filler","query","interrupted",13,-1,"",6535,"ice storms on Dax","result in permanent damage to the plants and animals on Dax","last a long time","reverse","Weather","none","result in permanent damage to the plants and animals on Dax","last a long time",1,FALSE,FALSE,FALSE,9,"response_1",1
"34","critical","query","uninterrupted",14,5,"",3975,"kweps","chew on xorfun bark","chew on tunkel bark","same","Kweps","all","chew on xorfun bark","chew on tunkel bark",1,FALSE,FALSE,FALSE,9,"response_1",1
"35","filler","query","uninterrupted",15,4,"",4592,"aliens","remember Wint","admire Wint","reverse","Wint of the Mountains","all","remember Wint","admire Wint",1,FALSE,FALSE,FALSE,9,"response_1",1
"36","critical","query","uninterrupted",16,3,"",7327,"isooms","produce fruit with bumpy skin","produce fruit with smooth skin","same","Isooms","all","produce fruit with bumpy skin","produce fruit with smooth skin",1,FALSE,FALSE,FALSE,9,"response_1",0.82
"37","filler","query","uninterrupted",17,4,"",5561,"aliens","find apaffs cute","tolerate apaffs to some extent","reverse","Apaffs","most","find apaffs cute","tolerate apaffs to some extent",1,FALSE,FALSE,FALSE,9,"response_1",0.88
"38","critical","query","interrupted",18,-1,"",8143,"reesles","wear wutsats around their heads","wear krevnors around their heads","same","Reesles","all","wear wutsats around their heads","wear krevnors around their heads",1,FALSE,FALSE,FALSE,9,"response_1",1
"39","critical","query","nme_interrupted",19,-1,"",4743,"glippets","live on the continent of Caro","live on the continent of Este","same","Glippets","all","live on the continent of Caro","graze on the tall grasses",1,FALSE,FALSE,FALSE,9,"response_1",1
"40","critical","query","interrupted",20,-1,"",4064,"lorches","have long wings","have short wings","same","Lorches","all","have long wings","have short wings",1,FALSE,FALSE,FALSE,9,"response_1",1
"41","filler","query","uninterrupted",1,3,"",7812,"animals","eat kazzes","come close to kazzes","same","Kazzes","none","eat kazzes","come close to kazzes",2,FALSE,FALSE,FALSE,8,"response_1",0
"42","filler","query","uninterrupted",2,4,"",11147,"lodeks","only bloom for one day a year","have purple petals","reverse","Nannus","most","only bloom for one day a year","have purple petals",2,FALSE,FALSE,FALSE,8,"response_1",1
"43","critical","query","interrupted",3,-1,"",8094,"lorches","have long wings","have short wings","same","Lorches","all","have long wings","have short wings",2,FALSE,FALSE,FALSE,8,"response_1",0.99
"44","critical","query","nme_interrupted",4,-1,"",14851,"Ludinos","ascribe to Cabooism","ascribe to Daithism","same","Religion","all","ascribe to Cabooism","pray three times a day",2,FALSE,FALSE,FALSE,8,"response_1",1
"45","critical","query","uninterrupted",5,3,"",8366,"isooms","produce fruit with bumpy skin","produce fruit with smooth skin","same","Isooms","all","produce fruit with bumpy skin","produce fruit with smooth skin",2,FALSE,FALSE,FALSE,8,"response_1",0.5
"46","filler","query","interrupted",6,-1,"",12438,"mupors","live in extended family groups","build large triangular rebos","same","Mupors","most","live in extended family groups","build large triangular rebos",2,FALSE,FALSE,FALSE,8,"response_1",1
"47","critical","query","interrupted",7,-1,"",8619,"mooks","have territories at the tops of tall mountains","have territories at the bottom of deep canyons","same","Mooks","all","have territories at the tops of tall mountains","have territories at the bottom of deep canyons",2,FALSE,FALSE,FALSE,8,"response_1",1
"48","critical","query","nme_interrupted",8,-1,"",9272,"reesles","wear wutsats around their heads","wear krevnors around their heads","same","Reesles","all","wear wutsats around their heads","carry sticks with them",2,FALSE,FALSE,FALSE,8,"response_1",1
"49","critical","query","uninterrupted",9,5,"",6734,"basket weavers","are part of the Tinnoclan","are part of the Farzaguild","same","Crafts","all","are part of the Tinnoclan","are part of the Farzaguild",2,FALSE,FALSE,FALSE,8,"response_1",1
"50","filler","query","uninterrupted",10,4,"",14352,"aliens","find apaffs cute","tolerate apaffs to some extent","same","Apaffs","most","find apaffs cute","tolerate apaffs to some extent",2,FALSE,FALSE,FALSE,8,"response_1",1
"51","filler","query","uninterrupted",11,3,"",7062,"wopis","live in the desert","are very hard to find","same","Wopis","all","live in the desert","are very hard to find",2,FALSE,FALSE,FALSE,8,"response_1",1
"52","critical","query","interrupted",12,-1,"",7790,"oller families","carry their young in guklags","carry their young in trullets","same","Ollers","all","carry their young in guklags","carry their young in trullets",2,FALSE,FALSE,FALSE,8,"response_1",1
"53","critical","query","nme_uninterrupted",13,3,"",6344,"glippets","live on the continent of Caro","live on the continent of Este","same","Glippets","all","live on the continent of Caro","graze on the tall grasses",2,FALSE,FALSE,FALSE,8,"response_1",1
"54","filler","query","interrupted",14,-1,"",6734,"yomis","live in the borderland woodlands","fly towards the mountains in search of food","same","Yomis","all","live in the borderland woodlands","fly towards the mountains in search of food",2,FALSE,FALSE,FALSE,8,"response_1",1
"55","critical","query","uninterrupted",15,4,"",13014,"fengnor mated pairs","build nests in gluers","build nests in droops","same","Fengnors","all","build nests in gluers","build nests in droops",2,FALSE,FALSE,FALSE,8,"response_1",0.5
"56","filler","query","uninterrupted",16,3,"",6131,"blins","have hollow bones","fly","reverse","Blins","all","have hollow bones","fly",2,FALSE,FALSE,FALSE,8,"response_1",1
"57","critical","query","interrupted",17,-1,"",6868,"kweps","chew on xorfun bark","chew on tunkel bark","same","Kweps","all","chew on xorfun bark","chew on tunkel bark",2,FALSE,FALSE,FALSE,8,"response_1",1
"58","filler","query","interrupted",18,-1,"",14110,"plovs","live in the continent of Aga","are attacked by other creatures","same","Plovs","none","live in the continent of Aga","are attacked by other creatures",2,FALSE,FALSE,FALSE,8,"response_1",0
"59","critical","query","uninterrupted",19,4,"",5467,"vimble queens","hibernate in fallen logs","hibernate in the abandoned burrows of other animals","same","Vimbles","all","hibernate in fallen logs","hibernate in the abandoned burrows of other animals",2,FALSE,FALSE,FALSE,8,"response_1",1
"60","critical","query","nme_uninterrupted",20,5,"",6271,"farmers in the springtime","plant fujusi","plant soroneeks","same","Agriculture","all","plant fujusi","spray their fields with a naturally-occurring fertilizer",2,FALSE,FALSE,FALSE,8,"response_1",1
"61","filler","query","uninterrupted",1,3,"",13797,"blins","have hollow bones","fly","reverse","Blins","all","have hollow bones","fly",3,FALSE,FALSE,FALSE,9,"response_1",1
"62","filler","query","uninterrupted",2,3,"",9829,"supools","live in the oceans","live for a very long time","reverse","Supools","all","live in the oceans","live for a very long time",3,FALSE,FALSE,FALSE,9,"response_1",1
"63","critical","query","interrupted",3,-1,"",8348,"Ludinos","ascribe to Cabooism","ascribe to Daithism","same","Religion","all","ascribe to Cabooism","ascribe to Daithism",3,FALSE,FALSE,FALSE,9,"response_1",1
"64","critical","query","nme_uninterrupted",4,3,"",8298,"glippets","live on the continent of Caro","live on the continent of Este","same","Glippets","all","live on the continent of Caro","graze on the tall grasses",3,FALSE,FALSE,FALSE,9,"response_1",1
"65","critical","query","nme_uninterrupted",5,5,"",7411,"kweps","chew on xorfun bark","chew on tunkel bark","same","Kweps","all","chew on xorfun bark","jump up and down in circles",3,FALSE,FALSE,FALSE,9,"response_1",1
"66","critical","query","uninterrupted",6,4,"",7934,"fengnor mated pairs","build nests in gluers","build nests in droops","same","Fengnors","all","build nests in gluers","build nests in droops",3,FALSE,FALSE,FALSE,9,"response_1",1
"67","filler","query","uninterrupted",7,3,"",9465,"mupors","live in extended family groups","build large triangular rebos","same","Mupors","most","live in extended family groups","build large triangular rebos",3,FALSE,FALSE,FALSE,9,"response_1",1
"68","filler","query","uninterrupted",8,4,"",9852,"plovs","live in the continent of Aga","are attacked by other creatures","reverse","Plovs","none","live in the continent of Aga","are attacked by other creatures",3,FALSE,FALSE,FALSE,9,"response_1",0
"69","critical","query","uninterrupted",9,5,"",15126,"mooks","have territories at the tops of tall mountains","have territories at the bottom of deep canyons","same","Mooks","all","have territories at the tops of tall mountains","have territories at the bottom of deep canyons",3,FALSE,FALSE,FALSE,9,"response_1",1
"70","filler","query","interrupted",10,-1,"",11740,"morseths","build permanent structures called fendles","come on land to find mates","reverse","Morseths","most","build permanent structures called fendles","come on land to find mates",3,FALSE,FALSE,FALSE,9,"response_1",1
"71","critical","query","interrupted",11,-1,"",9463,"basket weavers","are part of the Tinnoclan","are part of the Farzaguild","same","Crafts","all","are part of the Tinnoclan","are part of the Farzaguild",3,FALSE,FALSE,FALSE,9,"response_1",1
"72","critical","query","nme_interrupted",12,-1,"",16209,"isooms","produce fruit with bumpy skin","produce fruit with smooth skin","same","Isooms","all","produce fruit with bumpy skin","produce fruit with a sour taste",3,FALSE,FALSE,FALSE,9,"response_1",1
"73","critical","query","uninterrupted",13,5,"",5820,"Krens","are stup-herders","are fishermen","same","Finding food","all","are stup-herders","are fishermen",3,FALSE,FALSE,FALSE,9,"response_1",1
"74","filler","query","interrupted",14,-1,"",6435,"Astom aliens","use the tunnels to get around town","live in the residential quarter","same","Zorf the mapmaker","all","use the tunnels to get around town","live in the residential quarter",3,FALSE,FALSE,FALSE,9,"response_1",1
"75","critical","query","uninterrupted",15,5,"",12763,"farmers in the springtime","plant fujusi","plant soroneeks","same","Agriculture","all","plant fujusi","plant soroneeks",3,FALSE,FALSE,FALSE,9,"response_1",1
"76","filler","query","interrupted",16,-1,"",10556,"aliens","find apaffs cute","tolerate apaffs to some extent","reverse","Apaffs","most","find apaffs cute","tolerate apaffs to some extent",3,FALSE,FALSE,FALSE,9,"response_1",1
"77","filler","query","uninterrupted",17,3,"",10983,"animals","eat kazzes","come close to kazzes","same","Kazzes","none","eat kazzes","come close to kazzes",3,FALSE,FALSE,FALSE,9,"response_1",0
"78","critical","query","interrupted",18,-1,"",12581,"oller families","carry their young in guklags","carry their young in trullets","same","Ollers","all","carry their young in guklags","carry their young in trullets",3,FALSE,FALSE,FALSE,9,"response_1",1
"79","critical","query","nme_interrupted",19,-1,"",7653,"lorches","have long wings","have short wings","same","Lorches","all","have long wings","have sharp claws",3,FALSE,FALSE,FALSE,9,"response_1",1
"80","critical","query","interrupted",20,-1,"",9445,"vimble queens","hibernate in fallen logs","hibernate in the abandoned burrows of other animals","same","Vimbles","all","hibernate in fallen logs","hibernate in the abandoned burrows of other animals",3,FALSE,FALSE,FALSE,9,"response_1",1
"81","filler","query","uninterrupted",1,3,"",15264,"mupors","live in extended family groups","build large triangular rebos","reverse","Mupors","most","live in extended family groups","build large triangular rebos",4,FALSE,FALSE,FALSE,8,"response_1",0.75
"82","filler","query","uninterrupted",2,3,"",8092,"aliens","love Zorxon","are provided for by Zorxon","same","Zorxon, overlord of Dax","all","love Zorxon","are provided for by Zorxon",4,FALSE,FALSE,FALSE,8,"response_1",0.8
"83","critical","query","interrupted",3,-1,"",9162,"glippets","live on the continent of Caro","live on the continent of Este","same","Glippets","all","live on the continent of Caro","live on the continent of Este",4,FALSE,FALSE,FALSE,8,"response_1",1
"84","critical","query","nme_uninterrupted",4,4,"",8559,"vimble queens","hibernate in fallen logs","hibernate in the abandoned burrows of other animals","same","Vimbles","all","hibernate in fallen logs","give birth twice a year",4,FALSE,FALSE,FALSE,8,"response_1",1
"85","critical","query","uninterrupted",5,6,"",13390,"oller families","carry their young in guklags","carry their young in trullets","same","Ollers","all","carry their young in guklags","carry their young in trullets",4,FALSE,FALSE,FALSE,8,"response_1",0
"86","filler","query","uninterrupted",6,3,"",6944,"supools","live in the oceans","live for a very long time","reverse","Supools","all","live in the oceans","live for a very long time",4,FALSE,FALSE,FALSE,8,"response_1",0.98
"87","filler","query","interrupted",7,-1,"",8112,"aliens","remember Wint","admire Wint","same","Wint of the Mountains","all","remember Wint","admire Wint",4,FALSE,FALSE,FALSE,8,"response_1",0.7
"88","critical","query","interrupted",8,-1,"",8072,"Krens","are stup-herders","are fishermen","same","Finding food","all","are stup-herders","are fishermen",4,FALSE,FALSE,FALSE,8,"response_1",1
"89","critical","query","nme_interrupted",9,-1,"",12850,"basket weavers","are part of the Tinnoclan","are part of the Farzaguild","same","Crafts","all","are part of the Tinnoclan","sell their baskets in the Warfi marketplace",4,FALSE,FALSE,FALSE,8,"response_1",1
"90","filler","query","interrupted",10,-1,"",5945,"wopis","live in the desert","are very hard to find","reverse","Wopis","all","live in the desert","are very hard to find",4,FALSE,FALSE,FALSE,8,"response_1",0.99
"91","critical","query","uninterrupted",11,4,"",7952,"lorches","have long wings","have short wings","same","Lorches","all","have long wings","have short wings",4,FALSE,FALSE,FALSE,8,"response_1",0.5
"92","filler","query","uninterrupted",12,5,"",6111,"Astom aliens","use the tunnels to get around town","live in the residential quarter","same","Zorf the mapmaker","all","use the tunnels to get around town","live in the residential quarter",4,FALSE,FALSE,FALSE,8,"response_1",1
"93","critical","query","interrupted",13,-1,"",7695,"Ludinos","ascribe to Cabooism","ascribe to Daithism","same","Religion","all","ascribe to Cabooism","ascribe to Daithism",4,FALSE,FALSE,FALSE,8,"response_1",1
"94","filler","query","interrupted",14,-1,"",13264,"aliens","find apaffs cute","tolerate apaffs to some extent","reverse","Apaffs","most","find apaffs cute","tolerate apaffs to some extent",4,FALSE,FALSE,FALSE,8,"response_1",0.75
"95","critical","query","interrupted",15,-1,"",8491,"farmers in the springtime","plant fujusi","plant soroneeks","same","Agriculture","all","plant fujusi","plant soroneeks",4,FALSE,FALSE,FALSE,8,"response_1",1
"96","filler","query","uninterrupted",16,4,"",11049,"lodeks","only bloom for one day a year","have purple petals","same","Nannus","most","only bloom for one day a year","have purple petals",4,FALSE,FALSE,FALSE,8,"response_1",1
"97","critical","query","uninterrupted",17,5,"",8594,"kweps","chew on xorfun bark","chew on tunkel bark","same","Kweps","all","chew on xorfun bark","chew on tunkel bark",4,FALSE,FALSE,FALSE,8,"response_1",0.8
"98","critical","query","nme_uninterrupted",18,3,"",7007,"isooms","produce fruit with bumpy skin","produce fruit with smooth skin","same","Isooms","all","produce fruit with bumpy skin","produce fruit with a sour taste",4,FALSE,FALSE,FALSE,8,"response_1",1
"99","critical","query","nme_interrupted",19,-1,"",9335,"reesles","wear wutsats around their heads","wear krevnors around their heads","same","Reesles","all","wear wutsats around their heads","carry sticks with them",4,FALSE,FALSE,FALSE,8,"response_1",0.95
"100","critical","query","uninterrupted",20,5,"",7913,"mooks","have territories at the tops of tall mountains","have territories at the bottom of deep canyons","same","Mooks","all","have territories at the tops of tall mountains","have territories at the bottom of deep canyons",4,FALSE,FALSE,FALSE,8,"response_1",0.5
"101","filler","query","uninterrupted",1,3,"",4971,"supools","live in the oceans","live for a very long time","reverse","Supools","all","live in the oceans","live for a very long time",5,FALSE,FALSE,FALSE,8,"response_1",1
"102","filler","query","uninterrupted",2,4,"",8270,"lodeks","only bloom for one day a year","have purple petals","reverse","Nannus","most","only bloom for one day a year","have purple petals",5,FALSE,FALSE,FALSE,8,"response_1",1
"103","critical","query","uninterrupted",3,4,"",4787,"lorches","have long wings","have short wings","same","Lorches","all","have long wings","have short wings",5,FALSE,FALSE,FALSE,8,"response_1",0.49
"104","filler","query","uninterrupted",4,4,"",6818,"yomis","live in the borderland woodlands","fly towards the mountains in search of food","reverse","Yomis","all","live in the borderland woodlands","fly towards the mountains in search of food",5,FALSE,FALSE,FALSE,8,"response_1",0.83
"105","critical","query","nme_interrupted",5,-1,"",6737,"Ludinos","ascribe to Cabooism","ascribe to Daithism","same","Religion","all","ascribe to Cabooism","pray three times a day",5,FALSE,FALSE,FALSE,8,"response_1",1
"106","critical","query","interrupted",6,-1,"",8737,"fengnor mated pairs","build nests in gluers","build nests in droops","same","Fengnors","all","build nests in gluers","build nests in droops",5,FALSE,FALSE,FALSE,8,"response_1",1
"107","filler","query","interrupted",7,-1,"",5332,"morseths","build permanent structures called fendles","come on land to find mates","reverse","Morseths","most","build permanent structures called fendles","come on land to find mates",5,FALSE,FALSE,FALSE,8,"response_1",0.91
"108","critical","query","interrupted",8,-1,"",6146,"mooks","have territories at the tops of tall mountains","have territories at the bottom of deep canyons","same","Mooks","all","have territories at the tops of tall mountains","have territories at the bottom of deep canyons",5,FALSE,FALSE,FALSE,8,"response_1",1
"109","critical","query","nme_interrupted",9,-1,"",5174,"glippets","live on the continent of Caro","live on the continent of Este","same","Glippets","all","live on the continent of Caro","graze on the tall grasses",5,FALSE,FALSE,FALSE,8,"response_1",0.99
"110","filler","query","uninterrupted",10,3,"",7037,"animals","eat kazzes","come close to kazzes","same","Kazzes","none","eat kazzes","come close to kazzes",5,FALSE,FALSE,FALSE,8,"response_1",0.04
"111","critical","query","interrupted",11,-1,"",13180,"farmers in the springtime","plant fujusi","plant soroneeks","same","Agriculture","all","plant fujusi","plant soroneeks",5,FALSE,FALSE,FALSE,8,"response_1",0.86
"112","filler","query","interrupted",12,-1,"",5650,"ice storms on Dax","result in permanent damage to the plants and animals on Dax","last a long time","reverse","Weather","none","result in permanent damage to the plants and animals on Dax","last a long time",5,FALSE,FALSE,FALSE,8,"response_1",0
"113","critical","query","uninterrupted",13,5,"",11435,"reesles","wear wutsats around their heads","wear krevnors around their heads","same","Reesles","all","wear wutsats around their heads","wear krevnors around their heads",5,FALSE,FALSE,FALSE,8,"response_1",0.5
"114","critical","query","nme_uninterrupted",14,5,"",6023,"Krens","are stup-herders","are fishermen","same","Finding food","all","are stup-herders","sing songs to the stups to help them relax",5,FALSE,FALSE,FALSE,8,"response_1",0.93
"115","critical","query","nme_uninterrupted",15,4,"",5865,"vimble queens","hibernate in fallen logs","hibernate in the abandoned burrows of other animals","same","Vimbles","all","hibernate in fallen logs","give birth twice a year",5,FALSE,FALSE,FALSE,8,"response_1",1
"116","critical","query","interrupted",16,-1,"",7534,"kweps","chew on xorfun bark","chew on tunkel bark","same","Kweps","all","chew on xorfun bark","chew on tunkel bark",5,FALSE,FALSE,FALSE,8,"response_1",1
"117","filler","query","uninterrupted",17,4,"",5114,"aliens","find apaffs cute","tolerate apaffs to some extent","same","Apaffs","most","find apaffs cute","tolerate apaffs to some extent",5,FALSE,FALSE,FALSE,8,"response_1",0.62
"118","critical","query","uninterrupted",18,6,"",6109,"oller families","carry their young in guklags","carry their young in trullets","same","Ollers","all","carry their young in guklags","carry their young in trullets",5,FALSE,FALSE,FALSE,8,"response_1",0.58
"119","filler","query","interrupted",19,-1,"",6138,"aliens","remember Wint","admire Wint","reverse","Wint of the Mountains","all","remember Wint","admire Wint",5,FALSE,FALSE,FALSE,8,"response_1",0.59
"120","critical","query","uninterrupted",20,3,"",7602,"isooms","produce fruit with bumpy skin","produce fruit with smooth skin","same","Isooms","all","produce fruit with bumpy skin","produce fruit with smooth skin",5,FALSE,FALSE,FALSE,8,"response_1",1
"121","filler","query","uninterrupted",1,4,"",16418,"morseths","build permanent structures called fendles","come on land to find mates","same","Morseths","most","build permanent structures called fendles","come on land to find mates",6,FALSE,FALSE,FALSE,8,"response_1",0.9
"122","filler","query","uninterrupted",2,4,"",9922,"lodeks","only bloom for one day a year","have purple petals","reverse","Nannus","most","only bloom for one day a year","have purple petals",6,FALSE,FALSE,FALSE,8,"response_1",1
"123","critical","query","interrupted",3,-1,"",6745,"isooms","produce fruit with bumpy skin","produce fruit with smooth skin","same","Isooms","all","produce fruit with bumpy skin","produce fruit with smooth skin",6,FALSE,FALSE,FALSE,8,"response_1",1
"124","critical","query","nme_uninterrupted",4,3,"",5148,"Ludinos","ascribe to Cabooism","ascribe to Daithism","same","Religion","all","ascribe to Cabooism","pray three times a day",6,FALSE,FALSE,FALSE,8,"response_1",1
"125","filler","query","uninterrupted",5,4,"",8999,"aliens","find apaffs cute","tolerate apaffs to some extent","same","Apaffs","most","find apaffs cute","tolerate apaffs to some extent",6,FALSE,FALSE,FALSE,8,"response_1",0.8
"126","critical","query","interrupted",6,-1,"",5164,"Krens","are stup-herders","are fishermen","same","Finding food","all","are stup-herders","are fishermen",6,FALSE,FALSE,FALSE,8,"response_1",1
"127","filler","query","interrupted",7,-1,"",10728,"mupors","live in extended family groups","build large triangular rebos","reverse","Mupors","most","live in extended family groups","build large triangular rebos",6,FALSE,FALSE,FALSE,8,"response_1",0.9
"128","critical","query","uninterrupted",8,5,"",10493,"kweps","chew on xorfun bark","chew on tunkel bark","same","Kweps","all","chew on xorfun bark","chew on tunkel bark",6,FALSE,FALSE,FALSE,8,"response_1",0.5
"129","critical","query","nme_interrupted",9,-1,"",9304,"reesles","wear wutsats around their heads","wear krevnors around their heads","same","Reesles","all","wear wutsats around their heads","carry sticks with them",6,FALSE,FALSE,FALSE,8,"response_1",1
"130","critical","query","uninterrupted",10,6,"",5462,"oller families","carry their young in guklags","carry their young in trullets","same","Ollers","all","carry their young in guklags","carry their young in trullets",6,FALSE,FALSE,FALSE,8,"response_1",1
"131","filler","query","interrupted",11,-1,"",7750,"Astom aliens","use the tunnels to get around town","live in the residential quarter","reverse","Zorf the mapmaker","all","use the tunnels to get around town","live in the residential quarter",6,FALSE,FALSE,FALSE,8,"response_1",1
"132","critical","query","uninterrupted",12,4,"",4805,"fengnor mated pairs","build nests in gluers","build nests in droops","same","Fengnors","all","build nests in gluers","build nests in droops",6,FALSE,FALSE,FALSE,8,"response_1",1
"133","critical","query","nme_interrupted",13,-1,"",7123,"lorches","have long wings","have short wings","same","Lorches","all","have long wings","have sharp claws",6,FALSE,FALSE,FALSE,8,"response_1",1
"134","filler","query","uninterrupted",14,3,"",5304,"blins","have hollow bones","fly","reverse","Blins","all","have hollow bones","fly",6,FALSE,FALSE,FALSE,8,"response_1",0.5
"135","critical","query","interrupted",15,-1,"",6836,"vimble queens","hibernate in fallen logs","hibernate in the abandoned burrows of other animals","same","Vimbles","all","hibernate in fallen logs","hibernate in the abandoned burrows of other animals",6,FALSE,FALSE,FALSE,8,"response_1",1
"136","filler","query","interrupted",16,-1,"",5806,"wopis","live in the desert","are very hard to find","reverse","Wopis","all","live in the desert","are very hard to find",6,FALSE,FALSE,FALSE,8,"response_1",1
"137","critical","query","interrupted",17,-1,"",5890,"farmers in the springtime","plant fujusi","plant soroneeks","same","Agriculture","all","plant fujusi","plant soroneeks",6,FALSE,FALSE,FALSE,8,"response_1",1
"138","critical","query","nme_uninterrupted",18,5,"",5256,"mooks","have territories at the tops of tall mountains","have territories at the bottom of deep canyons","same","Mooks","all","have territories at the tops of tall mountains","watch over the low-lying regions during the day",6,FALSE,FALSE,FALSE,8,"response_1",1
"139","filler","query","uninterrupted",19,3,"",6234,"animals","eat kazzes","come close to kazzes","same","Kazzes","none","eat kazzes","come close to kazzes",6,FALSE,FALSE,FALSE,8,"response_1",0
"140","critical","query","uninterrupted",20,3,"",6312,"glippets","live on the continent of Caro","live on the continent of Este","same","Glippets","all","live on the continent of Caro","live on the continent of Este",6,FALSE,FALSE,FALSE,8,"response_1",0.5
"141","filler","query","uninterrupted",1,4,"",8528,"aliens","find apaffs cute","tolerate apaffs to some extent","same","Apaffs","most","find apaffs cute","tolerate apaffs to some extent",7,FALSE,FALSE,FALSE,8,"response_1",0.64
"142","filler","query","uninterrupted",2,3,"",7687,"animals","eat kazzes","come close to kazzes","same","Kazzes","none","eat kazzes","come close to kazzes",7,FALSE,FALSE,FALSE,8,"response_1",0.03
"143","critical","query","interrupted",3,-1,"",8160,"basket weavers","are part of the Tinnoclan","are part of the Farzaguild","same","Crafts","all","are part of the Tinnoclan","are part of the Farzaguild",7,FALSE,FALSE,FALSE,8,"response_1",0.99
"144","filler","query","interrupted",4,-1,"",9132,"lodeks","only bloom for one day a year","have purple petals","reverse","Nannus","most","only bloom for one day a year","have purple petals",7,FALSE,FALSE,FALSE,8,"response_1",0.97
"145","critical","query","interrupted",5,-1,"",7744,"oller families","carry their young in guklags","carry their young in trullets","same","Ollers","all","carry their young in guklags","carry their young in trullets",7,FALSE,FALSE,FALSE,8,"response_1",1
"146","filler","query","interrupted",6,-1,"",5737,"supools","live in the oceans","live for a very long time","reverse","Supools","all","live in the oceans","live for a very long time",7,FALSE,FALSE,FALSE,8,"response_1",0.98
"147","critical","query","uninterrupted",7,3,"",7607,"isooms","produce fruit with bumpy skin","produce fruit with smooth skin","same","Isooms","all","produce fruit with bumpy skin","produce fruit with smooth skin",7,FALSE,FALSE,FALSE,8,"response_1",0.57
"148","filler","query","uninterrupted",8,4,"",6264,"aliens","remember Wint","admire Wint","same","Wint of the Mountains","all","remember Wint","admire Wint",7,FALSE,FALSE,FALSE,8,"response_1",0.51
"149","critical","query","uninterrupted",9,4,"",5136,"vimble queens","hibernate in fallen logs","hibernate in the abandoned burrows of other animals","same","Vimbles","all","hibernate in fallen logs","hibernate in the abandoned burrows of other animals",7,FALSE,FALSE,FALSE,8,"response_1",0.97
"150","filler","query","uninterrupted",10,4,"",7344,"ice storms on Dax","result in permanent damage to the plants and animals on Dax","last a long time","same","Weather","none","result in permanent damage to the plants and animals on Dax","last a long time",7,FALSE,FALSE,FALSE,8,"response_1",0.18
"151","critical","query","interrupted",11,-1,"",7896,"mooks","have territories at the tops of tall mountains","have territories at the bottom of deep canyons","same","Mooks","all","have territories at the tops of tall mountains","have territories at the bottom of deep canyons",7,FALSE,FALSE,FALSE,8,"response_1",0.97
"152","critical","query","nme_interrupted",12,-1,"",8447,"lorches","have long wings","have short wings","same","Lorches","all","have long wings","have sharp claws",7,FALSE,FALSE,FALSE,8,"response_1",0.95
"153","filler","query","interrupted",13,-1,"",9591,"plovs","live in the continent of Aga","are attacked by other creatures","same","Plovs","none","live in the continent of Aga","are attacked by other creatures",7,FALSE,FALSE,FALSE,8,"response_1",0.88
"154","critical","query","interrupted",14,-1,"",10047,"Krens","are stup-herders","are fishermen","same","Finding food","all","are stup-herders","are fishermen",7,FALSE,FALSE,FALSE,8,"response_1",0.96
"155","critical","query","nme_uninterrupted",15,3,"",5455,"Ludinos","ascribe to Cabooism","ascribe to Daithism","same","Religion","all","ascribe to Cabooism","pray three times a day",7,FALSE,FALSE,FALSE,8,"response_1",0.98
"156","critical","query","nme_interrupted",16,-1,"",5568,"kweps","chew on xorfun bark","chew on tunkel bark","same","Kweps","all","chew on xorfun bark","jump up and down in circles",7,FALSE,FALSE,FALSE,8,"response_1",0.94
"157","critical","query","uninterrupted",17,5,"",12063,"farmers in the springtime","plant fujusi","plant soroneeks","same","Agriculture","all","plant fujusi","plant soroneeks",7,FALSE,FALSE,FALSE,8,"response_1",0.95
"158","critical","query","nme_uninterrupted",18,3,"",4264,"glippets","live on the continent of Caro","live on the continent of Este","same","Glippets","all","live on the continent of Caro","graze on the tall grasses",7,FALSE,FALSE,FALSE,8,"response_1",0.88
"159","critical","query","uninterrupted",19,5,"",9192,"reesles","wear wutsats around their heads","wear krevnors around their heads","same","Reesles","all","wear wutsats around their heads","wear krevnors around their heads",7,FALSE,FALSE,FALSE,8,"response_1",0.1
"160","filler","query","uninterrupted",20,5,"",6207,"Astom aliens","use the tunnels to get around town","live in the residential quarter","same","Zorf the mapmaker","all","use the tunnels to get around town","live in the residential quarter",7,FALSE,FALSE,FALSE,8,"response_1",0.92
"161","filler","query","uninterrupted",1,3,"",11422,"supools","live in the oceans","live for a very long time","reverse","Supools","all","live in the oceans","live for a very long time",8,FALSE,FALSE,FALSE,10,"response_1",1
"162","filler","query","uninterrupted",2,3,"",11888,"aliens","love Zorxon","are provided for by Zorxon","reverse","Zorxon, overlord of Dax","all","love Zorxon","are provided for by Zorxon",8,FALSE,FALSE,FALSE,10,"response_1",0.99
"163","critical","query","uninterrupted",3,5,"",13111,"reesles","wear wutsats around their heads","wear krevnors around their heads","same","Reesles","all","wear wutsats around their heads","wear krevnors around their heads",8,FALSE,FALSE,FALSE,10,"response_1",0.98
"164","critical","query","nme_uninterrupted",4,5,"",13481,"farmers in the springtime","plant fujusi","plant soroneeks","same","Agriculture","all","plant fujusi","spray their fields with a naturally-occurring fertilizer",8,FALSE,FALSE,FALSE,10,"response_1",1
"165","critical","query","interrupted",5,-1,"",5904,"Krens","are stup-herders","are fishermen","same","Finding food","all","are stup-herders","are fishermen",8,FALSE,FALSE,FALSE,10,"response_1",0.98
"166","critical","query","nme_interrupted",6,-1,"",11256,"lorches","have long wings","have short wings","same","Lorches","all","have long wings","have sharp claws",8,FALSE,FALSE,FALSE,10,"response_1",0.97
"167","critical","query","interrupted",7,-1,"",5255,"isooms","produce fruit with bumpy skin","produce fruit with smooth skin","same","Isooms","all","produce fruit with bumpy skin","produce fruit with smooth skin",8,FALSE,FALSE,FALSE,10,"response_1",1
"168","filler","query","uninterrupted",8,4,"",6536,"plovs","live in the continent of Aga","are attacked by other creatures","same","Plovs","none","live in the continent of Aga","are attacked by other creatures",8,FALSE,FALSE,FALSE,10,"response_1",1
"169","critical","query","uninterrupted",9,3,"",5697,"Ludinos","ascribe to Cabooism","ascribe to Daithism","same","Religion","all","ascribe to Cabooism","ascribe to Daithism",8,FALSE,FALSE,FALSE,10,"response_1",1
"170","filler","query","uninterrupted",10,4,"",7392,"yomis","live in the borderland woodlands","fly towards the mountains in search of food","same","Yomis","all","live in the borderland woodlands","fly towards the mountains in search of food",8,FALSE,FALSE,FALSE,10,"response_1",1
"171","critical","query","uninterrupted",11,5,"",5687,"mooks","have territories at the tops of tall mountains","have territories at the bottom of deep canyons","same","Mooks","all","have territories at the tops of tall mountains","have territories at the bottom of deep canyons",8,FALSE,FALSE,FALSE,10,"response_1",1
"172","critical","query","nme_interrupted",12,-1,"",15088,"vimble queens","hibernate in fallen logs","hibernate in the abandoned burrows of other animals","same","Vimbles","all","hibernate in fallen logs","give birth twice a year",8,FALSE,FALSE,FALSE,10,"response_1",1
"173","critical","query","uninterrupted",13,3,"",17200,"glippets","live on the continent of Caro","live on the continent of Este","same","Glippets","all","live on the continent of Caro","live on the continent of Este",8,FALSE,FALSE,FALSE,10,"response_1",0.5
"174","critical","query","nme_uninterrupted",14,4,"",7472,"fengnor mated pairs","build nests in gluers","build nests in droops","same","Fengnors","all","build nests in gluers","store tree-bark in them for safe keeping",8,FALSE,FALSE,FALSE,10,"response_1",1
"175","critical","query","interrupted",15,-1,"",6481,"kweps","chew on xorfun bark","chew on tunkel bark","same","Kweps","all","chew on xorfun bark","chew on tunkel bark",8,FALSE,FALSE,FALSE,10,"response_1",1
"176","filler","query","uninterrupted",16,4,"",14616,"aliens","find apaffs cute","tolerate apaffs to some extent","same","Apaffs","most","find apaffs cute","tolerate apaffs to some extent",8,FALSE,FALSE,FALSE,10,"response_1",0.75
"177","filler","query","interrupted",17,-1,"",10951,"mupors","live in extended family groups","build large triangular rebos","same","Mupors","most","live in extended family groups","build large triangular rebos",8,FALSE,FALSE,FALSE,10,"response_1",0.8
"178","filler","query","interrupted",18,-1,"",11536,"aliens","remember Wint","admire Wint","same","Wint of the Mountains","all","remember Wint","admire Wint",8,FALSE,FALSE,FALSE,10,"response_1",0.98
"179","critical","query","interrupted",19,-1,"",8168,"oller families","carry their young in guklags","carry their young in trullets","same","Ollers","all","carry their young in guklags","carry their young in trullets",8,FALSE,FALSE,FALSE,10,"response_1",1
"180","filler","query","interrupted",20,-1,"",5768,"blins","have hollow bones","fly","same","Blins","all","have hollow bones","fly",8,FALSE,FALSE,FALSE,10,"response_1",1
"181","filler","query","uninterrupted",1,3,"",5512,"animals","eat kazzes","come close to kazzes","reverse","Kazzes","none","eat kazzes","come close to kazzes",9,FALSE,TRUE,TRUE,5,"response_1",0.78
"182","filler","query","uninterrupted",2,4,"",3423,"morseths","build permanent structures called fendles","come on land to find mates","reverse","Morseths","most","build permanent structures called fendles","come on land to find mates",9,FALSE,TRUE,TRUE,5,"response_1",0.85
"183","critical","query","uninterrupted",3,4,"",4304,"fengnor mated pairs","build nests in gluers","build nests in droops","same","Fengnors","generic","build nests in gluers","build nests in droops",9,FALSE,TRUE,TRUE,5,"response_1",0.92
"184","filler","query","uninterrupted",4,4,"",3607,"ice storms on Dax","result in permanent damage to the plants and animals on Dax","last a long time","reverse","Weather","none","result in permanent damage to the plants and animals on Dax","last a long time",9,FALSE,TRUE,TRUE,5,"response_1",0.78
"185","critical","query","uninterrupted",5,3,"",4352,"Ludinos","ascribe to Cabooism","ascribe to Daithism","same","Religion","generic","ascribe to Cabooism","ascribe to Daithism",9,FALSE,TRUE,TRUE,5,"response_1",0.81
"186","critical","query","nme_uninterrupted",6,4,"",2576,"lorches","have long wings","have short wings","same","Lorches","generic","have long wings","have sharp claws",9,FALSE,TRUE,TRUE,5,"response_1",0.7
"187","critical","query","nme_uninterrupted",7,5,"",2753,"kweps","chew on xorfun bark","chew on tunkel bark","same","Kweps","generic","chew on xorfun bark","jump up and down in circles",9,FALSE,TRUE,TRUE,5,"response_1",0.97
"188","critical","query","uninterrupted",8,5,"",2583,"Krens","are stup-herders","are fishermen","same","Finding food","generic","are stup-herders","are fishermen",9,FALSE,TRUE,TRUE,5,"response_1",0.65
"189","critical","query","nme_interrupted",9,-1,"",2872,"reesles","wear wutsats around their heads","wear krevnors around their heads","same","Reesles","generic","wear wutsats around their heads","carry sticks with them",9,FALSE,TRUE,TRUE,5,"response_1",0.45
"190","critical","query","interrupted",10,-1,"",3856,"vimble queens","hibernate in fallen logs","hibernate in the abandoned burrows of other animals","same","Vimbles","generic","hibernate in fallen logs","hibernate in the abandoned burrows of other animals",9,FALSE,TRUE,TRUE,5,"response_1",0.82
"191","filler","query","interrupted",11,-1,"",4439,"plovs","live in the continent of Aga","are attacked by other creatures","same","Plovs","none","live in the continent of Aga","are attacked by other creatures",9,FALSE,TRUE,TRUE,5,"response_1",0.9
"192","critical","query","interrupted",12,-1,"",3169,"oller families","carry their young in guklags","carry their young in trullets","same","Ollers","generic","carry their young in guklags","carry their young in trullets",9,FALSE,TRUE,TRUE,5,"response_1",0.92
"193","filler","query","uninterrupted",13,5,"",2896,"Astom aliens","use the tunnels to get around town","live in the residential quarter","same","Zorf the mapmaker","all","use the tunnels to get around town","live in the residential quarter",9,FALSE,TRUE,TRUE,5,"response_1",0.64
"194","critical","query","nme_interrupted",14,-1,"",2881,"mooks","have territories at the tops of tall mountains","have territories at the bottom of deep canyons","same","Mooks","generic","have territories at the tops of tall mountains","watch over the low-lying regions during the day",9,FALSE,TRUE,TRUE,5,"response_1",0.9
"195","critical","query","interrupted",15,-1,"",3002,"farmers in the springtime","plant fujusi","plant soroneeks","same","Agriculture","generic","plant fujusi","plant soroneeks",9,FALSE,TRUE,TRUE,5,"response_1",0.81
"196","filler","query","uninterrupted",16,4,"",3255,"yomis","live in the borderland woodlands","fly towards the mountains in search of food","same","Yomis","all","live in the borderland woodlands","fly towards the mountains in search of food",9,FALSE,TRUE,TRUE,5,"response_1",0.57
"197","critical","query","uninterrupted",17,3,"",3215,"isooms","produce fruit with bumpy skin","produce fruit with smooth skin","same","Isooms","generic","produce fruit with bumpy skin","produce fruit with smooth skin",9,FALSE,TRUE,TRUE,5,"response_1",0.87
"198","filler","query","interrupted",18,-1,"",3087,"lodeks","only bloom for one day a year","have purple petals","same","Nannus","most","only bloom for one day a year","have purple petals",9,FALSE,TRUE,TRUE,5,"response_1",0.63
"199","filler","query","interrupted",19,-1,"",2904,"aliens","remember Wint","admire Wint","reverse","Wint of the Mountains","all","remember Wint","admire Wint",9,FALSE,TRUE,TRUE,5,"response_1",0.74
"200","critical","query","interrupted",20,-1,"",3201,"glippets","live on the continent of Caro","live on the continent of Este","same","Glippets","generic","live on the continent of Caro","live on the continent of Este",9,FALSE,TRUE,TRUE,5,"response_1",0.35
"201","filler","query","uninterrupted",1,4,"",10071,"lodeks","only bloom for one day a year","have purple petals","reverse","Nannus","most","only bloom for one day a year","have purple petals",10,FALSE,FALSE,FALSE,7,"response_1",0.54
"202","filler","query","uninterrupted",2,5,"",5040,"Astom aliens","use the tunnels to get around town","live in the residential quarter","same","Zorf the mapmaker","all","use the tunnels to get around town","live in the residential quarter",10,FALSE,FALSE,FALSE,7,"response_1",0.42
"203","filler","query","uninterrupted",3,4,"",6121,"aliens","find apaffs cute","tolerate apaffs to some extent","same","Apaffs","most","find apaffs cute","tolerate apaffs to some extent",10,FALSE,FALSE,FALSE,7,"response_1",0.46
"204","critical","query","uninterrupted",4,5,"",3264,"kweps","chew on xorfun bark","chew on tunkel bark","same","Kweps","generic","chew on xorfun bark","chew on tunkel bark",10,FALSE,FALSE,FALSE,7,"response_1",0.34
"205","critical","query","nme_uninterrupted",5,5,"",3464,"Krens","are stup-herders","are fishermen","same","Finding food","generic","are stup-herders","sing songs to the stups to help them relax",10,FALSE,FALSE,FALSE,7,"response_1",0.4
"206","critical","query","interrupted",6,-1,"",3808,"fengnor mated pairs","build nests in gluers","build nests in droops","same","Fengnors","generic","build nests in gluers","build nests in droops",10,FALSE,FALSE,FALSE,7,"response_1",0.37
"207","filler","query","interrupted",7,-1,"",2776,"supools","live in the oceans","live for a very long time","same","Supools","all","live in the oceans","live for a very long time",10,FALSE,FALSE,FALSE,7,"response_1",0.45
"208","critical","query","uninterrupted",8,5,"",2648,"mooks","have territories at the tops of tall mountains","have territories at the bottom of deep canyons","same","Mooks","generic","have territories at the tops of tall mountains","have territories at the bottom of deep canyons",10,FALSE,FALSE,FALSE,7,"response_1",0.33
"209","filler","query","interrupted",9,-1,"",3120,"blins","have hollow bones","fly","same","Blins","all","have hollow bones","fly",10,FALSE,FALSE,FALSE,7,"response_1",0.44
"210","critical","query","interrupted",10,-1,"",3480,"farmers in the springtime","plant fujusi","plant soroneeks","same","Agriculture","generic","plant fujusi","plant soroneeks",10,FALSE,FALSE,FALSE,7,"response_1",0.38
"211","critical","query","nme_interrupted",11,-1,"",2752,"vimble queens","hibernate in fallen logs","hibernate in the abandoned burrows of other animals","same","Vimbles","generic","hibernate in fallen logs","give birth twice a year",10,FALSE,FALSE,FALSE,7,"response_1",0.51
"212","filler","query","interrupted",12,-1,"",6256,"aliens","remember Wint","admire Wint","same","Wint of the Mountains","all","remember Wint","admire Wint",10,FALSE,FALSE,FALSE,7,"response_1",0.44
"213","critical","query","interrupted",13,-1,"",9824,"isooms","produce fruit with bumpy skin","produce fruit with smooth skin","same","Isooms","generic","produce fruit with bumpy skin","produce fruit with smooth skin",10,FALSE,FALSE,FALSE,7,"response_1",0.63
"214","filler","query","uninterrupted",14,3,"",2823,"animals","eat kazzes","come close to kazzes","reverse","Kazzes","none","eat kazzes","come close to kazzes",10,FALSE,FALSE,FALSE,7,"response_1",0.31
"215","critical","query","interrupted",15,-1,"",3169,"reesles","wear wutsats around their heads","wear krevnors around their heads","same","Reesles","generic","wear wutsats around their heads","wear krevnors around their heads",10,FALSE,FALSE,FALSE,7,"response_1",0.62
"216","critical","query","nme_uninterrupted",16,4,"",3167,"lorches","have long wings","have short wings","same","Lorches","generic","have long wings","have sharp claws",10,FALSE,FALSE,FALSE,7,"response_1",0.4
"217","critical","query","nme_interrupted",17,-1,"",2592,"basket weavers","are part of the Tinnoclan","are part of the Farzaguild","same","Crafts","generic","are part of the Tinnoclan","sell their baskets in the Warfi marketplace",10,FALSE,FALSE,FALSE,7,"response_1",0.41
"218","critical","query","uninterrupted",18,3,"",2216,"Ludinos","ascribe to Cabooism","ascribe to Daithism","same","Religion","generic","ascribe to Cabooism","ascribe to Daithism",10,FALSE,FALSE,FALSE,7,"response_1",0.37
"219","filler","query","uninterrupted",19,4,"",2384,"plovs","live in the continent of Aga","are attacked by other creatures","reverse","Plovs","none","live in the continent of Aga","are attacked by other creatures",10,FALSE,FALSE,FALSE,7,"response_1",0.63
"220","critical","query","uninterrupted",20,6,"",2576,"oller families","carry their young in guklags","carry their young in trullets","same","Ollers","generic","carry their young in guklags","carry their young in trullets",10,FALSE,FALSE,FALSE,7,"response_1",0.54
"221","filler","query","uninterrupted",1,3,"",12375,"wopis","live in the desert","are very hard to find","reverse","Wopis","all","live in the desert","are very hard to find",11,FALSE,FALSE,FALSE,9,"response_1",1
"222","filler","query","uninterrupted",2,4,"",18287,"ice storms on Dax","result in permanent damage to the plants and animals on Dax","last a long time","same","Weather","none","result in permanent damage to the plants and animals on Dax","last a long time",11,FALSE,FALSE,FALSE,9,"response_1",0
"223","critical","query","nme_uninterrupted",3,4,"",21640,"vimble queens","hibernate in fallen logs","hibernate in the abandoned burrows of other animals","same","Vimbles","generic","hibernate in fallen logs","give birth twice a year",11,FALSE,FALSE,FALSE,9,"response_1",0.99
"224","critical","query","uninterrupted",4,5,"",15728,"kweps","chew on xorfun bark","chew on tunkel bark","same","Kweps","generic","chew on xorfun bark","chew on tunkel bark",11,FALSE,FALSE,FALSE,9,"response_1",0.8
"225","filler","query","interrupted",5,-1,"",27416,"aliens","remember Wint","admire Wint","reverse","Wint of the Mountains","all","remember Wint","admire Wint",11,FALSE,FALSE,FALSE,9,"response_1",0.9
"226","critical","query","uninterrupted",6,5,"",25665,"basket weavers","are part of the Tinnoclan","are part of the Farzaguild","same","Crafts","generic","are part of the Tinnoclan","are part of the Farzaguild",11,FALSE,FALSE,FALSE,9,"response_1",0.5
"227","filler","query","interrupted",7,-1,"",33713,"morseths","build permanent structures called fendles","come on land to find mates","reverse","Morseths","most","build permanent structures called fendles","come on land to find mates",11,FALSE,FALSE,FALSE,9,"response_1",0.8
"228","critical","query","nme_uninterrupted",8,5,"",15776,"mooks","have territories at the tops of tall mountains","have territories at the bottom of deep canyons","same","Mooks","generic","have territories at the tops of tall mountains","watch over the low-lying regions during the day",11,FALSE,FALSE,FALSE,9,"response_1",0.9
"229","critical","query","interrupted",9,-1,"",25408,"isooms","produce fruit with bumpy skin","produce fruit with smooth skin","same","Isooms","generic","produce fruit with bumpy skin","produce fruit with smooth skin",11,FALSE,FALSE,FALSE,9,"response_1",0.99
"230","filler","query","uninterrupted",10,3,"",22848,"animals","eat kazzes","come close to kazzes","reverse","Kazzes","none","eat kazzes","come close to kazzes",11,FALSE,FALSE,FALSE,9,"response_1",0
"231","filler","query","uninterrupted",11,4,"",19872,"aliens","find apaffs cute","tolerate apaffs to some extent","reverse","Apaffs","most","find apaffs cute","tolerate apaffs to some extent",11,FALSE,FALSE,FALSE,9,"response_1",0.8
"232","critical","query","uninterrupted",12,5,"",16567,"reesles","wear wutsats around their heads","wear krevnors around their heads","same","Reesles","generic","wear wutsats around their heads","wear krevnors around their heads",11,FALSE,FALSE,FALSE,9,"response_1",0.99
"233","filler","query","uninterrupted",13,4,"",28064,"yomis","live in the borderland woodlands","fly towards the mountains in search of food","reverse","Yomis","all","live in the borderland woodlands","fly towards the mountains in search of food",11,FALSE,FALSE,FALSE,9,"response_1",0
"234","critical","query","uninterrupted",14,5,"",11713,"Krens","are stup-herders","are fishermen","same","Finding food","generic","are stup-herders","are fishermen",11,FALSE,FALSE,FALSE,9,"response_1",0.5
"235","critical","query","nme_interrupted",15,-1,"",13657,"farmers in the springtime","plant fujusi","plant soroneeks","same","Agriculture","generic","plant fujusi","spray their fields with a naturally-occurring fertilizer",11,FALSE,FALSE,FALSE,9,"response_1",1
"236","critical","query","interrupted",16,-1,"",17545,"oller families","carry their young in guklags","carry their young in trullets","same","Ollers","generic","carry their young in guklags","carry their young in trullets",11,FALSE,FALSE,FALSE,9,"response_1",0.99
"237","critical","query","nme_interrupted",17,-1,"",17720,"glippets","live on the continent of Caro","live on the continent of Este","same","Glippets","generic","live on the continent of Caro","graze on the tall grasses",11,FALSE,FALSE,FALSE,9,"response_1",1
"238","critical","query","interrupted",18,-1,"",12944,"lorches","have long wings","have short wings","same","Lorches","generic","have long wings","have short wings",11,FALSE,FALSE,FALSE,9,"response_1",1
"239","filler","query","interrupted",19,-1,"",11303,"supools","live in the oceans","live for a very long time","reverse","Supools","all","live in the oceans","live for a very long time",11,FALSE,FALSE,FALSE,9,"response_1",1
"240","critical","query","interrupted",20,-1,"",20999,"fengnor mated pairs","build nests in gluers","build nests in droops","same","Fengnors","generic","build nests in gluers","build nests in droops",11,FALSE,FALSE,FALSE,9,"response_1",1
"241","filler","query","uninterrupted",1,3,"",15834,"blins","have hollow bones","fly","same","Blins","all","have hollow bones","fly",12,FALSE,TRUE,TRUE,6,"response_1",0.56
"242","filler","query","uninterrupted",2,4,"",4170,"morseths","build permanent structures called fendles","come on land to find mates","same","Morseths","most","build permanent structures called fendles","come on land to find mates",12,FALSE,TRUE,TRUE,6,"response_1",0.4
"243","critical","query","uninterrupted",3,3,"",4950,"Ludinos","ascribe to Cabooism","ascribe to Daithism","same","Religion","generic","ascribe to Cabooism","ascribe to Daithism",12,FALSE,TRUE,TRUE,6,"response_1",0.66
"244","filler","query","interrupted",4,-1,"",3460,"Astom aliens","use the tunnels to get around town","live in the residential quarter","reverse","Zorf the mapmaker","all","use the tunnels to get around town","live in the residential quarter",12,FALSE,TRUE,TRUE,6,"response_1",0.37
"245","critical","query","nme_interrupted",5,-1,"",3105,"lorches","have long wings","have short wings","same","Lorches","generic","have long wings","have sharp claws",12,FALSE,TRUE,TRUE,6,"response_1",0.35
"246","critical","query","interrupted",6,-1,"",2808,"Krens","are stup-herders","are fishermen","same","Finding food","generic","are stup-herders","are fishermen",12,FALSE,TRUE,TRUE,6,"response_1",0.35
"247","critical","query","nme_interrupted",7,-1,"",2523,"fengnor mated pairs","build nests in gluers","build nests in droops","same","Fengnors","generic","build nests in gluers","store tree-bark in them for safe keeping",12,FALSE,TRUE,TRUE,6,"response_1",0.32
"248","critical","query","uninterrupted",8,5,"",2992,"reesles","wear wutsats around their heads","wear krevnors around their heads","same","Reesles","generic","wear wutsats around their heads","wear krevnors around their heads",12,FALSE,TRUE,TRUE,6,"response_1",0.71
"249","filler","query","interrupted",9,-1,"",2856,"plovs","live in the continent of Aga","are attacked by other creatures","same","Plovs","none","live in the continent of Aga","are attacked by other creatures",12,FALSE,TRUE,TRUE,6,"response_1",0.39
"250","critical","query","interrupted",10,-1,"",12199,"oller families","carry their young in guklags","carry their young in trullets","same","Ollers","generic","carry their young in guklags","carry their young in trullets",12,FALSE,TRUE,TRUE,6,"response_1",0.23
"251","filler","query","interrupted",11,-1,"",2367,"ice storms on Dax","result in permanent damage to the plants and animals on Dax","last a long time","same","Weather","none","result in permanent damage to the plants and animals on Dax","last a long time",12,FALSE,TRUE,TRUE,6,"response_1",0.65
"252","critical","query","uninterrupted",12,5,"",2544,"kweps","chew on xorfun bark","chew on tunkel bark","same","Kweps","generic","chew on xorfun bark","chew on tunkel bark",12,FALSE,TRUE,TRUE,6,"response_1",0.53
"253","critical","query","nme_uninterrupted",13,5,"",2623,"farmers in the springtime","plant fujusi","plant soroneeks","same","Agriculture","generic","plant fujusi","spray their fields with a naturally-occurring fertilizer",12,FALSE,TRUE,TRUE,6,"response_1",0.69
"254","critical","query","interrupted",14,-1,"",2589,"isooms","produce fruit with bumpy skin","produce fruit with smooth skin","same","Isooms","generic","produce fruit with bumpy skin","produce fruit with smooth skin",12,FALSE,TRUE,TRUE,6,"response_1",0.38
"255","filler","query","uninterrupted",15,4,"",2396,"aliens","find apaffs cute","tolerate apaffs to some extent","same","Apaffs","most","find apaffs cute","tolerate apaffs to some extent",12,FALSE,TRUE,TRUE,6,"response_1",0.36
"256","filler","query","uninterrupted",16,3,"",2681,"aliens","love Zorxon","are provided for by Zorxon","reverse","Zorxon, overlord of Dax","all","love Zorxon","are provided for by Zorxon",12,FALSE,TRUE,TRUE,6,"response_1",0.56
"257","critical","query","interrupted",17,-1,"",2861,"vimble queens","hibernate in fallen logs","hibernate in the abandoned burrows of other animals","same","Vimbles","generic","hibernate in fallen logs","hibernate in the abandoned burrows of other animals",12,FALSE,TRUE,TRUE,6,"response_1",0.69
"258","critical","query","nme_uninterrupted",18,3,"",3715,"glippets","live on the continent of Caro","live on the continent of Este","same","Glippets","generic","live on the continent of Caro","graze on the tall grasses",12,FALSE,TRUE,TRUE,6,"response_1",0.39
"259","filler","query","uninterrupted",19,4,"",3904,"yomis","live in the borderland woodlands","fly towards the mountains in search of food","reverse","Yomis","all","live in the borderland woodlands","fly towards the mountains in search of food",12,FALSE,TRUE,TRUE,6,"response_1",0.42
"260","critical","query","uninterrupted",20,5,"",3118,"basket weavers","are part of the Tinnoclan","are part of the Farzaguild","same","Crafts","generic","are part of the Tinnoclan","are part of the Farzaguild",12,FALSE,TRUE,TRUE,6,"response_1",0.64
"261","filler","query","uninterrupted",1,4,"",26768,"aliens","remember Wint","admire Wint","reverse","Wint of the Mountains","all","remember Wint","admire Wint",13,FALSE,FALSE,FALSE,8,"response_1",1
"262","filler","query","uninterrupted",2,3,"",12229,"blins","have hollow bones","fly","same","Blins","all","have hollow bones","fly",13,FALSE,FALSE,FALSE,8,"response_1",1
"263","critical","query","uninterrupted",3,5,"",27482,"kweps","chew on xorfun bark","chew on tunkel bark","same","Kweps","generic","chew on xorfun bark","chew on tunkel bark",13,FALSE,FALSE,FALSE,8,"response_1",1
"264","filler","query","interrupted",4,-1,"",15149,"aliens","find apaffs cute","tolerate apaffs to some extent","same","Apaffs","most","find apaffs cute","tolerate apaffs to some extent",13,FALSE,FALSE,FALSE,8,"response_1",0.81
"265","critical","query","uninterrupted",5,5,"",32230,"reesles","wear wutsats around their heads","wear krevnors around their heads","same","Reesles","generic","wear wutsats around their heads","wear krevnors around their heads",13,FALSE,FALSE,FALSE,8,"response_1",1
"266","critical","query","nme_interrupted",6,-1,"",22032,"farmers in the springtime","plant fujusi","plant soroneeks","same","Agriculture","generic","plant fujusi","spray their fields with a naturally-occurring fertilizer",13,FALSE,FALSE,FALSE,8,"response_1",0.75
"267","critical","query","nme_interrupted",7,-1,"",4681,"lorches","have long wings","have short wings","same","Lorches","generic","have long wings","have sharp claws",13,FALSE,FALSE,FALSE,8,"response_1",1
"268","critical","query","interrupted",8,-1,"",5826,"basket weavers","are part of the Tinnoclan","are part of the Farzaguild","same","Crafts","generic","are part of the Tinnoclan","are part of the Farzaguild",13,FALSE,FALSE,FALSE,8,"response_1",0.84
"269","filler","query","interrupted",9,-1,"",4544,"supools","live in the oceans","live for a very long time","reverse","Supools","all","live in the oceans","live for a very long time",13,FALSE,FALSE,FALSE,8,"response_1",1
"270","filler","query","interrupted",10,-1,"",6180,"yomis","live in the borderland woodlands","fly towards the mountains in search of food","reverse","Yomis","all","live in the borderland woodlands","fly towards the mountains in search of food",13,FALSE,FALSE,FALSE,8,"response_1",0.75
"271","critical","query","interrupted",11,-1,"",4537,"Krens","are stup-herders","are fishermen","same","Finding food","generic","are stup-herders","are fishermen",13,FALSE,FALSE,FALSE,8,"response_1",0.66
"272","critical","query","nme_uninterrupted",12,3,"",4237,"glippets","live on the continent of Caro","live on the continent of Este","same","Glippets","generic","live on the continent of Caro","graze on the tall grasses",13,FALSE,FALSE,FALSE,8,"response_1",1
"273","filler","query","uninterrupted",13,3,"",4002,"wopis","live in the desert","are very hard to find","same","Wopis","all","live in the desert","are very hard to find",13,FALSE,FALSE,FALSE,8,"response_1",1
"274","critical","query","uninterrupted",14,4,"",6844,"vimble queens","hibernate in fallen logs","hibernate in the abandoned burrows of other animals","same","Vimbles","generic","hibernate in fallen logs","hibernate in the abandoned burrows of other animals",13,FALSE,FALSE,FALSE,8,"response_1",1
"275","filler","query","uninterrupted",15,4,"",16641,"lodeks","only bloom for one day a year","have purple petals","same","Nannus","most","only bloom for one day a year","have purple petals",13,FALSE,FALSE,FALSE,8,"response_1",0.75
"276","critical","query","interrupted",16,-1,"",3995,"mooks","have territories at the tops of tall mountains","have territories at the bottom of deep canyons","same","Mooks","generic","have territories at the tops of tall mountains","have territories at the bottom of deep canyons",13,FALSE,FALSE,FALSE,8,"response_1",1
"277","critical","query","nme_uninterrupted",17,3,"",5836,"isooms","produce fruit with bumpy skin","produce fruit with smooth skin","same","Isooms","generic","produce fruit with bumpy skin","produce fruit with a sour taste",13,FALSE,FALSE,FALSE,8,"response_1",0.58
"278","critical","query","uninterrupted",18,3,"",32995,"Ludinos","ascribe to Cabooism","ascribe to Daithism","same","Religion","generic","ascribe to Cabooism","ascribe to Daithism",13,FALSE,FALSE,FALSE,8,"response_1",0.68
"279","filler","query","uninterrupted",19,3,"",24368,"aliens","love Zorxon","are provided for by Zorxon","reverse","Zorxon, overlord of Dax","all","love Zorxon","are provided for by Zorxon",13,FALSE,FALSE,FALSE,8,"response_1",1
"280","critical","query","interrupted",20,-1,"",3145,"oller families","carry their young in guklags","carry their young in trullets","same","Ollers","generic","carry their young in guklags","carry their young in trullets",13,FALSE,FALSE,FALSE,8,"response_1",0.82
"281","filler","query","uninterrupted",1,4,"",25128,"aliens","remember Wint","admire Wint","same","Wint of the Mountains","all","remember Wint","admire Wint",14,FALSE,FALSE,FALSE,5,"response_1",1
"282","filler","query","uninterrupted",2,3,"",33135,"mupors","live in extended family groups","build large triangular rebos","same","Mupors","most","live in extended family groups","build large triangular rebos",14,FALSE,FALSE,FALSE,5,"response_1",0.89
"283","critical","query","interrupted",3,-1,"",13243,"isooms","produce fruit with bumpy skin","produce fruit with smooth skin","same","Isooms","generic","produce fruit with bumpy skin","produce fruit with smooth skin",14,FALSE,FALSE,FALSE,5,"response_1",1
"284","critical","query","nme_interrupted",4,-1,"",12088,"Ludinos","ascribe to Cabooism","ascribe to Daithism","same","Religion","generic","ascribe to Cabooism","pray three times a day",14,FALSE,FALSE,FALSE,5,"response_1",0.98
"285","critical","query","interrupted",5,-1,"",21011,"mooks","have territories at the tops of tall mountains","have territories at the bottom of deep canyons","same","Mooks","generic","have territories at the tops of tall mountains","have territories at the bottom of deep canyons",14,FALSE,FALSE,FALSE,5,"response_1",1
"286","filler","query","interrupted",6,-1,"",16079,"aliens","love Zorxon","are provided for by Zorxon","reverse","Zorxon, overlord of Dax","all","love Zorxon","are provided for by Zorxon",14,FALSE,FALSE,FALSE,5,"response_1",0.98
"287","critical","query","uninterrupted",7,6,"",56712,"oller families","carry their young in guklags","carry their young in trullets","same","Ollers","generic","carry their young in guklags","carry their young in trullets",14,FALSE,FALSE,FALSE,5,"response_1",1
"288","filler","query","interrupted",8,-1,"",16262,"supools","live in the oceans","live for a very long time","reverse","Supools","all","live in the oceans","live for a very long time",14,FALSE,FALSE,FALSE,5,"response_1",1
"289","critical","query","nme_uninterrupted",9,5,"",51018,"basket weavers","are part of the Tinnoclan","are part of the Farzaguild","same","Crafts","generic","are part of the Tinnoclan","sell their baskets in the Warfi marketplace",14,FALSE,FALSE,FALSE,5,"response_1",1
"290","critical","query","interrupted",10,-1,"",35247,"vimble queens","hibernate in fallen logs","hibernate in the abandoned burrows of other animals","same","Vimbles","generic","hibernate in fallen logs","hibernate in the abandoned burrows of other animals",14,FALSE,FALSE,FALSE,5,"response_1",1
"291","critical","query","nme_uninterrupted",11,4,"",11279,"lorches","have long wings","have short wings","same","Lorches","generic","have long wings","have sharp claws",14,FALSE,FALSE,FALSE,5,"response_1",1
"292","filler","query","uninterrupted",12,3,"",44701,"animals","eat kazzes","come close to kazzes","same","Kazzes","none","eat kazzes","come close to kazzes",14,FALSE,FALSE,FALSE,5,"response_1",0
"293","critical","query","uninterrupted",13,5,"",81992,"farmers in the springtime","plant fujusi","plant soroneeks","same","Agriculture","generic","plant fujusi","plant soroneeks",14,FALSE,FALSE,FALSE,5,"response_1",1
"294","critical","query","nme_interrupted",14,-1,"",43138,"reesles","wear wutsats around their heads","wear krevnors around their heads","same","Reesles","generic","wear wutsats around their heads","carry sticks with them",14,FALSE,FALSE,FALSE,5,"response_1",1
"295","critical","query","uninterrupted",15,4,"",96194,"fengnor mated pairs","build nests in gluers","build nests in droops","same","Fengnors","generic","build nests in gluers","build nests in droops",14,FALSE,FALSE,FALSE,5,"response_1",0.5
"296","filler","query","interrupted",16,-1,"",28137,"morseths","build permanent structures called fendles","come on land to find mates","reverse","Morseths","most","build permanent structures called fendles","come on land to find mates",14,FALSE,FALSE,FALSE,5,"response_1",0.96
"297","critical","query","interrupted",17,-1,"",29528,"Krens","are stup-herders","are fishermen","same","Finding food","generic","are stup-herders","are fishermen",14,FALSE,FALSE,FALSE,5,"response_1",1
"298","filler","query","uninterrupted",18,4,"",31011,"yomis","live in the borderland woodlands","fly towards the mountains in search of food","reverse","Yomis","all","live in the borderland woodlands","fly towards the mountains in search of food",14,FALSE,FALSE,FALSE,5,"response_1",1
"299","filler","query","uninterrupted",19,3,"",12519,"blins","have hollow bones","fly","same","Blins","all","have hollow bones","fly",14,FALSE,FALSE,FALSE,5,"response_1",1
"300","critical","query","uninterrupted",20,5,"",25590,"kweps","chew on xorfun bark","chew on tunkel bark","same","Kweps","generic","chew on xorfun bark","chew on tunkel bark",14,FALSE,FALSE,FALSE,5,"response_1",1
"301","filler","query","uninterrupted",1,3,"",74183,"mupors","live in extended family groups","build large triangular rebos","same","Mupors","most","live in extended family groups","build large triangular rebos",15,FALSE,FALSE,FALSE,7,"response_1",0.9
"302","filler","query","uninterrupted",2,4,"",94279,"lodeks","only bloom for one day a year","have purple petals","reverse","Nannus","most","only bloom for one day a year","have purple petals",15,FALSE,FALSE,FALSE,7,"response_1",1
"303","critical","query","interrupted",3,-1,"",55917,"farmers in the springtime","plant fujusi","plant soroneeks","same","Agriculture","generic","plant fujusi","plant soroneeks",15,FALSE,FALSE,FALSE,7,"response_1",1
"304","filler","query","interrupted",4,-1,"",67728,"yomis","live in the borderland woodlands","fly towards the mountains in search of food","same","Yomis","all","live in the borderland woodlands","fly towards the mountains in search of food",15,FALSE,FALSE,FALSE,7,"response_1",1
"305","critical","query","interrupted",5,-1,"",26887,"Ludinos","ascribe to Cabooism","ascribe to Daithism","same","Religion","generic","ascribe to Cabooism","ascribe to Daithism",15,FALSE,FALSE,FALSE,7,"response_1",1
"306","filler","query","uninterrupted",6,3,"",9416,"supools","live in the oceans","live for a very long time","reverse","Supools","all","live in the oceans","live for a very long time",15,FALSE,FALSE,FALSE,7,"response_1",1
"307","critical","query","uninterrupted",7,5,"",55968,"Krens","are stup-herders","are fishermen","same","Finding food","generic","are stup-herders","are fishermen",15,FALSE,FALSE,FALSE,7,"response_1",0.5
"308","critical","query","nme_uninterrupted",8,5,"",41414,"reesles","wear wutsats around their heads","wear krevnors around their heads","same","Reesles","generic","wear wutsats around their heads","carry sticks with them",15,FALSE,FALSE,FALSE,7,"response_1",1
"309","filler","query","uninterrupted",9,4,"",40608,"aliens","remember Wint","admire Wint","reverse","Wint of the Mountains","all","remember Wint","admire Wint",15,FALSE,FALSE,FALSE,7,"response_1",1
"310","critical","query","nme_uninterrupted",10,4,"",49888,"vimble queens","hibernate in fallen logs","hibernate in the abandoned burrows of other animals","same","Vimbles","generic","hibernate in fallen logs","give birth twice a year",15,FALSE,FALSE,FALSE,7,"response_1",1
"311","critical","query","interrupted",11,-1,"",8433,"kweps","chew on xorfun bark","chew on tunkel bark","same","Kweps","generic","chew on xorfun bark","chew on tunkel bark",15,FALSE,FALSE,FALSE,7,"response_1",1
"312","critical","query","nme_interrupted",12,-1,"",25175,"lorches","have long wings","have short wings","same","Lorches","generic","have long wings","have sharp claws",15,FALSE,FALSE,FALSE,7,"response_1",1
"313","critical","query","uninterrupted",13,6,"",100488,"oller families","carry their young in guklags","carry their young in trullets","same","Ollers","generic","carry their young in guklags","carry their young in trullets",15,FALSE,FALSE,FALSE,7,"response_1",1
"314","filler","query","interrupted",14,-1,"",29784,"morseths","build permanent structures called fendles","come on land to find mates","reverse","Morseths","most","build permanent structures called fendles","come on land to find mates",15,FALSE,FALSE,FALSE,7,"response_1",0.75
"315","critical","query","nme_interrupted",15,-1,"",61134,"mooks","have territories at the tops of tall mountains","have territories at the bottom of deep canyons","same","Mooks","generic","have territories at the tops of tall mountains","watch over the low-lying regions during the day",15,FALSE,FALSE,FALSE,7,"response_1",1
"316","critical","query","uninterrupted",16,4,"",35976,"fengnor mated pairs","build nests in gluers","build nests in droops","same","Fengnors","generic","build nests in gluers","build nests in droops",15,FALSE,FALSE,FALSE,7,"response_1",0.5
"317","filler","query","uninterrupted",17,3,"",41744,"wopis","live in the desert","are very hard to find","same","Wopis","all","live in the desert","are very hard to find",15,FALSE,FALSE,FALSE,7,"response_1",1
"318","critical","query","uninterrupted",18,3,"",23567,"isooms","produce fruit with bumpy skin","produce fruit with smooth skin","same","Isooms","generic","produce fruit with bumpy skin","produce fruit with smooth skin",15,FALSE,FALSE,FALSE,7,"response_1",0.5
"319","filler","query","interrupted",19,-1,"",25828,"blins","have hollow bones","fly","reverse","Blins","all","have hollow bones","fly",15,FALSE,FALSE,FALSE,7,"response_1",1
"320","critical","query","interrupted",20,-1,"",44191,"basket weavers","are part of the Tinnoclan","are part of the Farzaguild","same","Crafts","generic","are part of the Tinnoclan","are part of the Farzaguild",15,FALSE,FALSE,FALSE,7,"response_1",0.25
"321","filler","query","uninterrupted",1,3,"",41168,"blins","have hollow bones","fly","same","Blins","all","have hollow bones","fly",16,FALSE,TRUE,TRUE,3,"response_1",0.46
"322","filler","query","uninterrupted",2,3,"",5112,"aliens","love Zorxon","are provided for by Zorxon","reverse","Zorxon, overlord of Dax","all","love Zorxon","are provided for by Zorxon",16,FALSE,TRUE,TRUE,3,"response_1",0.54
"323","filler","query","interrupted",3,-1,"",4576,"Astom aliens","use the tunnels to get around town","live in the residential quarter","same","Zorf the mapmaker","all","use the tunnels to get around town","live in the residential quarter",16,FALSE,TRUE,TRUE,3,"response_1",0.48
"324","critical","query","interrupted",4,-1,"",2896,"farmers in the springtime","plant fujusi","plant soroneeks","same","Agriculture","generic","plant fujusi","plant soroneeks",16,FALSE,TRUE,TRUE,3,"response_1",0.44
"325","filler","query","interrupted",5,-1,"",2570,"aliens","find apaffs cute","tolerate apaffs to some extent","same","Apaffs","most","find apaffs cute","tolerate apaffs to some extent",16,FALSE,TRUE,TRUE,3,"response_1",0.48
"326","critical","query","uninterrupted",6,3,"",3288,"glippets","live on the continent of Caro","live on the continent of Este","same","Glippets","generic","live on the continent of Caro","live on the continent of Este",16,FALSE,TRUE,TRUE,3,"response_1",0.45
"327","critical","query","nme_interrupted",7,-1,"",2415,"basket weavers","are part of the Tinnoclan","are part of the Farzaguild","same","Crafts","generic","are part of the Tinnoclan","sell their baskets in the Warfi marketplace",16,FALSE,TRUE,TRUE,3,"response_1",0.45
"328","critical","query","interrupted",8,-1,"",2367,"Ludinos","ascribe to Cabooism","ascribe to Daithism","same","Religion","generic","ascribe to Cabooism","ascribe to Daithism",16,FALSE,TRUE,TRUE,3,"response_1",0.48
"329","critical","query","nme_interrupted",9,-1,"",2312,"Krens","are stup-herders","are fishermen","same","Finding food","generic","are stup-herders","sing songs to the stups to help them relax",16,FALSE,TRUE,TRUE,3,"response_1",0.49
"330","filler","query","uninterrupted",10,4,"",2287,"plovs","live in the continent of Aga","are attacked by other creatures","same","Plovs","none","live in the continent of Aga","are attacked by other creatures",16,FALSE,TRUE,TRUE,3,"response_1",0.42
"331","critical","query","interrupted",11,-1,"",3679,"lorches","have long wings","have short wings","same","Lorches","generic","have long wings","have short wings",16,FALSE,TRUE,TRUE,3,"response_1",0.48
"332","filler","query","uninterrupted",12,3,"",2648,"animals","eat kazzes","come close to kazzes","reverse","Kazzes","none","eat kazzes","come close to kazzes",16,FALSE,TRUE,TRUE,3,"response_1",0.67
"333","critical","query","uninterrupted",13,3,"",2744,"isooms","produce fruit with bumpy skin","produce fruit with smooth skin","same","Isooms","generic","produce fruit with bumpy skin","produce fruit with smooth skin",16,FALSE,TRUE,TRUE,3,"response_1",0.44
"334","filler","query","interrupted",14,-1,"",2873,"lodeks","only bloom for one day a year","have purple petals","same","Nannus","most","only bloom for one day a year","have purple petals",16,FALSE,TRUE,TRUE,3,"response_1",0.49
"335","critical","query","uninterrupted",15,5,"",2952,"reesles","wear wutsats around their heads","wear krevnors around their heads","same","Reesles","generic","wear wutsats around their heads","wear krevnors around their heads",16,FALSE,TRUE,TRUE,3,"response_1",0.53
"336","critical","query","nme_uninterrupted",16,4,"",2752,"vimble queens","hibernate in fallen logs","hibernate in the abandoned burrows of other animals","same","Vimbles","generic","hibernate in fallen logs","give birth twice a year",16,FALSE,TRUE,TRUE,3,"response_1",0.42
"337","critical","query","interrupted",17,-1,"",2504,"kweps","chew on xorfun bark","chew on tunkel bark","same","Kweps","generic","chew on xorfun bark","chew on tunkel bark",16,FALSE,TRUE,TRUE,3,"response_1",0.45
"338","filler","query","uninterrupted",18,3,"",2115,"wopis","live in the desert","are very hard to find","same","Wopis","all","live in the desert","are very hard to find",16,FALSE,TRUE,TRUE,3,"response_1",0.48
"339","critical","query","uninterrupted",19,5,"",2776,"mooks","have territories at the tops of tall mountains","have territories at the bottom of deep canyons","same","Mooks","generic","have territories at the tops of tall mountains","have territories at the bottom of deep canyons",16,FALSE,TRUE,TRUE,3,"response_1",0.5
"340","critical","query","nme_uninterrupted",20,6,"",3056,"oller families","carry their young in guklags","carry their young in trullets","same","Ollers","generic","carry their young in guklags","are very protective",16,FALSE,TRUE,TRUE,3,"response_1",0.5
"341","filler","query","uninterrupted",1,3,"",6008,"animals","eat kazzes","come close to kazzes","same","Kazzes","none","eat kazzes","come close to kazzes",17,FALSE,FALSE,FALSE,6,"response_1",0
"342","filler","query","uninterrupted",2,5,"",10312,"Astom aliens","use the tunnels to get around town","live in the residential quarter","reverse","Zorf the mapmaker","all","use the tunnels to get around town","live in the residential quarter",17,FALSE,FALSE,FALSE,6,"response_1",1
"343","critical","query","interrupted",3,-1,"",17290,"reesles","wear wutsats around their heads","wear krevnors around their heads","same","Reesles","generic","wear wutsats around their heads","wear krevnors around their heads",17,FALSE,FALSE,FALSE,6,"response_1",0.7
"344","filler","query","interrupted",4,-1,"",7072,"morseths","build permanent structures called fendles","come on land to find mates","same","Morseths","most","build permanent structures called fendles","come on land to find mates",17,FALSE,FALSE,FALSE,6,"response_1",0.9
"345","critical","query","nme_interrupted",5,-1,"",7808,"glippets","live on the continent of Caro","live on the continent of Este","same","Glippets","generic","live on the continent of Caro","graze on the tall grasses",17,FALSE,FALSE,FALSE,6,"response_1",1
"346","critical","query","uninterrupted",6,4,"",12216,"vimble queens","hibernate in fallen logs","hibernate in the abandoned burrows of other animals","same","Vimbles","generic","hibernate in fallen logs","hibernate in the abandoned burrows of other animals",17,FALSE,FALSE,FALSE,6,"response_1",0.75
"347","critical","query","nme_uninterrupted",7,3,"",7448,"Ludinos","ascribe to Cabooism","ascribe to Daithism","same","Religion","generic","ascribe to Cabooism","pray three times a day",17,FALSE,FALSE,FALSE,6,"response_1",0.72
"348","critical","query","uninterrupted",8,4,"",8029,"fengnor mated pairs","build nests in gluers","build nests in droops","same","Fengnors","generic","build nests in gluers","build nests in droops",17,FALSE,FALSE,FALSE,6,"response_1",0.66
"349","critical","query","nme_uninterrupted",9,6,"",4966,"oller families","carry their young in guklags","carry their young in trullets","same","Ollers","generic","carry their young in guklags","are very protective",17,FALSE,FALSE,FALSE,6,"response_1",1
"350","critical","query","interrupted",10,-1,"",4088,"lorches","have long wings","have short wings","same","Lorches","generic","have long wings","have short wings",17,FALSE,FALSE,FALSE,6,"response_1",1
"351","filler","query","uninterrupted",11,3,"",4519,"aliens","love Zorxon","are provided for by Zorxon","reverse","Zorxon, overlord of Dax","all","love Zorxon","are provided for by Zorxon",17,FALSE,FALSE,FALSE,6,"response_1",1
"352","critical","query","uninterrupted",12,5,"",5728,"basket weavers","are part of the Tinnoclan","are part of the Farzaguild","same","Crafts","generic","are part of the Tinnoclan","are part of the Farzaguild",17,FALSE,FALSE,FALSE,6,"response_1",1
"353","filler","query","uninterrupted",13,4,"",5505,"yomis","live in the borderland woodlands","fly towards the mountains in search of food","reverse","Yomis","all","live in the borderland woodlands","fly towards the mountains in search of food",17,FALSE,FALSE,FALSE,6,"response_1",1
"354","critical","query","uninterrupted",14,5,"",13048,"farmers in the springtime","plant fujusi","plant soroneeks","same","Agriculture","generic","plant fujusi","plant soroneeks",17,FALSE,FALSE,FALSE,6,"response_1",1
"355","filler","query","interrupted",15,-1,"",5552,"aliens","find apaffs cute","tolerate apaffs to some extent","reverse","Apaffs","most","find apaffs cute","tolerate apaffs to some extent",17,FALSE,FALSE,FALSE,6,"response_1",1
"356","filler","query","uninterrupted",16,3,"",5705,"blins","have hollow bones","fly","reverse","Blins","all","have hollow bones","fly",17,FALSE,FALSE,FALSE,6,"response_1",1
"357","critical","query","interrupted",17,-1,"",4624,"kweps","chew on xorfun bark","chew on tunkel bark","same","Kweps","generic","chew on xorfun bark","chew on tunkel bark",17,FALSE,FALSE,FALSE,6,"response_1",1
"358","filler","query","interrupted",18,-1,"",9818,"mupors","live in extended family groups","build large triangular rebos","reverse","Mupors","most","live in extended family groups","build large triangular rebos",17,FALSE,FALSE,FALSE,6,"response_1",1
"359","critical","query","nme_interrupted",19,-1,"",7319,"isooms","produce fruit with bumpy skin","produce fruit with smooth skin","same","Isooms","generic","produce fruit with bumpy skin","produce fruit with a sour taste",17,FALSE,FALSE,FALSE,6,"response_1",0.9
"360","critical","query","interrupted",20,-1,"",3976,"mooks","have territories at the tops of tall mountains","have territories at the bottom of deep canyons","same","Mooks","generic","have territories at the tops of tall mountains","have territories at the bottom of deep canyons",17,FALSE,FALSE,FALSE,6,"response_1",1
"361","filler","query","uninterrupted",1,4,"",17843,"aliens","remember Wint","admire Wint","same","Wint of the Mountains","all","remember Wint","admire Wint",18,FALSE,FALSE,FALSE,9,"response_1",0.85
"362","filler","query","uninterrupted",2,3,"",17023,"mupors","live in extended family groups","build large triangular rebos","same","Mupors","most","live in extended family groups","build large triangular rebos",18,FALSE,FALSE,FALSE,9,"response_1",1
"363","critical","query","uninterrupted",3,5,"",19259,"farmers in the springtime","plant fujusi","plant soroneeks","same","Agriculture","generic","plant fujusi","plant soroneeks",18,FALSE,FALSE,FALSE,9,"response_1",1
"364","filler","query","interrupted",4,-1,"",6815,"animals","eat kazzes","come close to kazzes","reverse","Kazzes","none","eat kazzes","come close to kazzes",18,FALSE,FALSE,FALSE,9,"response_1",0
"365","critical","query","interrupted",5,-1,"",8351,"mooks","have territories at the tops of tall mountains","have territories at the bottom of deep canyons","same","Mooks","generic","have territories at the tops of tall mountains","have territories at the bottom of deep canyons",18,FALSE,FALSE,FALSE,9,"response_1",1
"366","critical","query","nme_interrupted",6,-1,"",15642,"reesles","wear wutsats around their heads","wear krevnors around their heads","same","Reesles","generic","wear wutsats around their heads","carry sticks with them",18,FALSE,FALSE,FALSE,9,"response_1",0.6
"367","critical","query","interrupted",7,-1,"",20602,"basket weavers","are part of the Tinnoclan","are part of the Farzaguild","same","Crafts","generic","are part of the Tinnoclan","are part of the Farzaguild",18,FALSE,FALSE,FALSE,9,"response_1",0.6
"368","filler","query","interrupted",8,-1,"",6516,"wopis","live in the desert","are very hard to find","reverse","Wopis","all","live in the desert","are very hard to find",18,FALSE,FALSE,FALSE,9,"response_1",1
"369","critical","query","uninterrupted",9,4,"",30999,"fengnor mated pairs","build nests in gluers","build nests in droops","same","Fengnors","generic","build nests in gluers","build nests in droops",18,FALSE,FALSE,FALSE,9,"response_1",0.5
"370","filler","query","uninterrupted",10,3,"",6968,"aliens","love Zorxon","are provided for by Zorxon","same","Zorxon, overlord of Dax","all","love Zorxon","are provided for by Zorxon",18,FALSE,FALSE,FALSE,9,"response_1",1
"371","critical","query","uninterrupted",11,5,"",8040,"Krens","are stup-herders","are fishermen","same","Finding food","generic","are stup-herders","are fishermen",18,FALSE,FALSE,FALSE,9,"response_1",0.5
"372","critical","query","nme_uninterrupted",12,5,"",16148,"kweps","chew on xorfun bark","chew on tunkel bark","same","Kweps","generic","chew on xorfun bark","jump up and down in circles",18,FALSE,FALSE,FALSE,9,"response_1",1
"373","critical","query","uninterrupted",13,3,"",7836,"isooms","produce fruit with bumpy skin","produce fruit with smooth skin","same","Isooms","generic","produce fruit with bumpy skin","produce fruit with smooth skin",18,FALSE,FALSE,FALSE,9,"response_1",0.5
"374","filler","query","interrupted",14,-1,"",13935,"aliens","find apaffs cute","tolerate apaffs to some extent","same","Apaffs","most","find apaffs cute","tolerate apaffs to some extent",18,FALSE,FALSE,FALSE,9,"response_1",0.85
"375","critical","query","interrupted",15,-1,"",10734,"Ludinos","ascribe to Cabooism","ascribe to Daithism","same","Religion","generic","ascribe to Cabooism","ascribe to Daithism",18,FALSE,FALSE,FALSE,9,"response_1",0.9
"376","critical","query","nme_interrupted",16,-1,"",14366,"glippets","live on the continent of Caro","live on the continent of Este","same","Glippets","generic","live on the continent of Caro","graze on the tall grasses",18,FALSE,FALSE,FALSE,9,"response_1",1
"377","filler","query","uninterrupted",17,3,"",5876,"blins","have hollow bones","fly","reverse","Blins","all","have hollow bones","fly",18,FALSE,FALSE,FALSE,9,"response_1",1
"378","critical","query","interrupted",18,-1,"",7602,"vimble queens","hibernate in fallen logs","hibernate in the abandoned burrows of other animals","same","Vimbles","generic","hibernate in fallen logs","hibernate in the abandoned burrows of other animals",18,FALSE,FALSE,FALSE,9,"response_1",1
"379","filler","query","uninterrupted",19,4,"",9524,"plovs","live in the continent of Aga","are attacked by other creatures","same","Plovs","none","live in the continent of Aga","are attacked by other creatures",18,FALSE,FALSE,FALSE,9,"response_1",0
"380","critical","query","nme_uninterrupted",20,6,"",7516,"oller families","carry their young in guklags","carry their young in trullets","same","Ollers","generic","carry their young in guklags","are very protective",18,FALSE,FALSE,FALSE,9,"response_1",1
"381","filler","query","uninterrupted",1,4,"",13103,"yomis","live in the borderland woodlands","fly towards the mountains in search of food","reverse","Yomis","all","live in the borderland woodlands","fly towards the mountains in search of food",19,FALSE,FALSE,FALSE,8,"response_1",1
"382","filler","query","uninterrupted",2,3,"",10903,"aliens","love Zorxon","are provided for by Zorxon","reverse","Zorxon, overlord of Dax","all","love Zorxon","are provided for by Zorxon",19,FALSE,FALSE,FALSE,8,"response_1",1
"383","critical","query","interrupted",3,-1,"",10108,"basket weavers","are part of the Tinnoclan","are part of the Farzaguild","same","Crafts","generic","are part of the Tinnoclan","are part of the Farzaguild",19,FALSE,FALSE,FALSE,8,"response_1",1
"384","filler","query","interrupted",4,-1,"",7897,"wopis","live in the desert","are very hard to find","reverse","Wopis","all","live in the desert","are very hard to find",19,FALSE,FALSE,FALSE,8,"response_1",1
"385","critical","query","uninterrupted",5,3,"",10134,"Ludinos","ascribe to Cabooism","ascribe to Daithism","same","Religion","generic","ascribe to Cabooism","ascribe to Daithism",19,FALSE,FALSE,FALSE,8,"response_1",0.5
"386","critical","query","nme_uninterrupted",6,4,"",24949,"fengnor mated pairs","build nests in gluers","build nests in droops","same","Fengnors","generic","build nests in gluers","store tree-bark in them for safe keeping",19,FALSE,FALSE,FALSE,8,"response_1",0.75
"387","critical","query","uninterrupted",7,4,"",9388,"lorches","have long wings","have short wings","same","Lorches","generic","have long wings","have short wings",19,FALSE,FALSE,FALSE,8,"response_1",0.5
"388","critical","query","nme_uninterrupted",8,5,"",17721,"Krens","are stup-herders","are fishermen","same","Finding food","generic","are stup-herders","sing songs to the stups to help them relax",19,FALSE,FALSE,FALSE,8,"response_1",0.9
"389","critical","query","uninterrupted",9,5,"",20353,"kweps","chew on xorfun bark","chew on tunkel bark","same","Kweps","generic","chew on xorfun bark","chew on tunkel bark",19,FALSE,FALSE,FALSE,8,"response_1",0.65
"390","critical","query","nme_interrupted",10,-1,"",8369,"reesles","wear wutsats around their heads","wear krevnors around their heads","same","Reesles","generic","wear wutsats around their heads","carry sticks with them",19,FALSE,FALSE,FALSE,8,"response_1",1
"391","filler","query","uninterrupted",11,3,"",22925,"animals","eat kazzes","come close to kazzes","reverse","Kazzes","none","eat kazzes","come close to kazzes",19,FALSE,FALSE,FALSE,8,"response_1",0
"392","critical","query","interrupted",12,-1,"",9851,"oller families","carry their young in guklags","carry their young in trullets","same","Ollers","generic","carry their young in guklags","carry their young in trullets",19,FALSE,FALSE,FALSE,8,"response_1",1
"393","filler","query","uninterrupted",13,4,"",15773,"plovs","live in the continent of Aga","are attacked by other creatures","same","Plovs","none","live in the continent of Aga","are attacked by other creatures",19,FALSE,FALSE,FALSE,8,"response_1",0
"394","critical","query","interrupted",14,-1,"",17905,"farmers in the springtime","plant fujusi","plant soroneeks","same","Agriculture","generic","plant fujusi","plant soroneeks",19,FALSE,FALSE,FALSE,8,"response_1",0.85
"395","filler","query","uninterrupted",15,5,"",23795,"Astom aliens","use the tunnels to get around town","live in the residential quarter","same","Zorf the mapmaker","all","use the tunnels to get around town","live in the residential quarter",19,FALSE,FALSE,FALSE,8,"response_1",1
"396","critical","query","uninterrupted",16,3,"",8594,"glippets","live on the continent of Caro","live on the continent of Este","same","Glippets","generic","live on the continent of Caro","live on the continent of Este",19,FALSE,FALSE,FALSE,8,"response_1",0.5
"397","critical","query","nme_interrupted",17,-1,"",16852,"mooks","have territories at the tops of tall mountains","have territories at the bottom of deep canyons","same","Mooks","generic","have territories at the tops of tall mountains","watch over the low-lying regions during the day",19,FALSE,FALSE,FALSE,8,"response_1",1
"398","filler","query","interrupted",18,-1,"",14318,"aliens","find apaffs cute","tolerate apaffs to some extent","reverse","Apaffs","most","find apaffs cute","tolerate apaffs to some extent",19,FALSE,FALSE,FALSE,8,"response_1",0.8
"399","filler","query","interrupted",19,-1,"",6382,"blins","have hollow bones","fly","reverse","Blins","all","have hollow bones","fly",19,FALSE,FALSE,FALSE,8,"response_1",1
"400","critical","query","interrupted",20,-1,"",7959,"vimble queens","hibernate in fallen logs","hibernate in the abandoned burrows of other animals","same","Vimbles","generic","hibernate in fallen logs","hibernate in the abandoned burrows of other animals",19,FALSE,FALSE,FALSE,8,"response_1",1
"401","filler","query","uninterrupted",1,4,"",56528,"yomis","live in the borderland woodlands","fly towards the mountains in search of food","same","Yomis","all","live in the borderland woodlands","fly towards the mountains in search of food",20,FALSE,FALSE,TRUE,5,"response_1",1
"402","filler","query","uninterrupted",2,3,"",54727,"mupors","live in extended family groups","build large triangular rebos","same","Mupors","most","live in extended family groups","build large triangular rebos",20,FALSE,FALSE,TRUE,5,"response_1",1
"403","critical","query","uninterrupted",3,4,"",56503,"fengnor mated pairs","build nests in gluers","build nests in droops","same","Fengnors","generic","build nests in gluers","build nests in droops",20,FALSE,FALSE,TRUE,5,"response_1",1
"404","filler","query","interrupted",4,-1,"",41575,"plovs","live in the continent of Aga","are attacked by other creatures","same","Plovs","none","live in the continent of Aga","are attacked by other creatures",20,FALSE,FALSE,TRUE,5,"response_1",0.02
"405","critical","query","uninterrupted",5,5,"",79200,"farmers in the springtime","plant fujusi","plant soroneeks","same","Agriculture","generic","plant fujusi","plant soroneeks",20,FALSE,FALSE,TRUE,5,"response_1",0
"406","filler","query","interrupted",6,-1,"",55863,"morseths","build permanent structures called fendles","come on land to find mates","reverse","Morseths","most","build permanent structures called fendles","come on land to find mates",20,FALSE,FALSE,TRUE,5,"response_1",0.86
"407","critical","query","interrupted",7,-1,"",49903,"oller families","carry their young in guklags","carry their young in trullets","same","Ollers","generic","carry their young in guklags","carry their young in trullets",20,FALSE,FALSE,TRUE,5,"response_1",0.97
"408","critical","query","nme_uninterrupted",8,5,"",51759,"Krens","are stup-herders","are fishermen","same","Finding food","generic","are stup-herders","sing songs to the stups to help them relax",20,FALSE,FALSE,TRUE,5,"response_1",0.17
"409","filler","query","uninterrupted",9,3,"",18736,"wopis","live in the desert","are very hard to find","reverse","Wopis","all","live in the desert","are very hard to find",20,FALSE,FALSE,TRUE,5,"response_1",0.95
"410","critical","query","uninterrupted",10,5,"",33375,"basket weavers","are part of the Tinnoclan","are part of the Farzaguild","same","Crafts","generic","are part of the Tinnoclan","are part of the Farzaguild",20,FALSE,FALSE,TRUE,5,"response_1",1
"411","filler","query","interrupted",11,-1,"",7120,"aliens","remember Wint","admire Wint","same","Wint of the Mountains","all","remember Wint","admire Wint",20,FALSE,FALSE,TRUE,5,"response_1",0.92
"412","filler","query","uninterrupted",12,3,"",6144,"supools","live in the oceans","live for a very long time","same","Supools","all","live in the oceans","live for a very long time",20,FALSE,FALSE,TRUE,5,"response_1",0.78
"413","critical","query","interrupted",13,-1,"",35144,"kweps","chew on xorfun bark","chew on tunkel bark","same","Kweps","generic","chew on xorfun bark","chew on tunkel bark",20,FALSE,FALSE,TRUE,5,"response_1",0.98
"414","critical","query","nme_interrupted",14,-1,"",32920,"reesles","wear wutsats around their heads","wear krevnors around their heads","same","Reesles","generic","wear wutsats around their heads","carry sticks with them",20,FALSE,FALSE,TRUE,5,"response_1",0.93
