"","trial_type","condition","chapter_num","page_content","query_predicate1","query_predicate2","question_order","conjunct_order","response1","response2","rt","kind","predicate_1","predicate_2","chapter","quantifier","workerid","memory_fail","slider_fail","bad_expln","n_correct","bad_ratings"
"1","filler","uninterrupted",1,"Zorxon is the overlord of Dax.  Everyone loves Zorxon because she  provides for all the aliens of Dax. However, Zorxon is now very old  and she rarely makes public appearances anymore.","love Zorxon","are provided for by Zorxon","reverse","reverse",0.8,0.68,12393,"aliens","love Zorxon","are provided for by Zorxon","Zorxon, overlord of Dax","all","645a6517e313390917505e79b3797f3b",FALSE,TRUE,TRUE,7,FALSE
"2","filler","uninterrupted",2,"Wint lived a long time ago in the mountains. He loved to travel. All aliens remember Wint and admire him because he was the one that found the lost city of Baff.","remember Wint","admire Wint","same","reverse",0.39,0.74,10751,"aliens","remember Wint","admire Wint","Wint of the Mountains","all","645a6517e313390917505e79b3797f3b",FALSE,TRUE,TRUE,7,FALSE
"3","critical","pp",3,"Isooms are tree-like plants that are found in hilly regions. Their fruit is edible, and the aliens often  cultivate isooms for food. Isooms produce fruit with bumpy skin and with smooth skin.","produce fruit with bumpy skin","produce fruit with smooth skin","same","same",0.77,0.85,9515,"isooms","produce fruit with bumpy skin","produce fruit with smooth skin","Isooms","generic","645a6517e313390917505e79b3797f3b",FALSE,TRUE,TRUE,7,FALSE
"4","filler","uninterrupted",4,"Supools are the biggest creatures on Dax. They all live in the oceans and  all of them live for a very long time. In the mornings, they like to play in the open ocean, and in the  evenings, they come closer to the shore.","live in the oceans","live for a very long time","reverse","reverse",0.81,0.48,9705,"supools","live in the oceans","live for a very long time","Supools","all","645a6517e313390917505e79b3797f3b",FALSE,TRUE,TRUE,7,FALSE
"5","filler","uninterrupted",5,"Zorf the mapmaker lives in Astom. In Astom, there are many ways to get  from place to place, but the most popular way is through tunnels. All of the Astom aliens use the tunnels  to get around town from their homes in the residential quarter. Since all of the Astom aliens live there, it's very crowded at night.","use the tunnels to get around town","live in the residential quarter","reverse","same",0.81,0.91,9533,"Astom aliens","use the tunnels to get around town","live in the residential quarter","Zorf the mapmaker","all","645a6517e313390917505e79b3797f3b",FALSE,TRUE,TRUE,7,FALSE
"6","filler","uninterrupted",6,"The weather on Dax is very constant, not changing much from day to day. Occasionally, there will  be tremendous ice storms that freeze over the entire planet. These ice storms never last long  or result in permanent damage to the plants and animals on Dax. However, the ice storms make the entire sky as dark as night.","result in permanent damage to the plants and animals on Dax","last a long time","same","reverse",0.39,0.86,9825,"ice storms on Dax","result in permanent damage to the plants and animals on Dax","last a long time","Weather","none","645a6517e313390917505e79b3797f3b",FALSE,TRUE,TRUE,7,FALSE
"7","critical","np",7,"Vimbles are social insects that live in colonies of up to a thousand individuals. They have a single queen, who must find somewhere to hibernate over the winter before  starting a new colony. Vimble queens hibernate in fallen logs and the abandoned burrows of other animals.","hibernate in fallen logs","hibernate in the abandoned burrows of other animals","same","same",0.9,0.73,10141,"vimble queens","hibernate in fallen logs","hibernate in the abandoned burrows of other animals","Vimbles","generic","645a6517e313390917505e79b3797f3b",FALSE,TRUE,TRUE,7,FALSE
"8","filler","uninterrupted",8,"Wopis only live in the desert and  they all are very hard to find. Wopis sleep during the day to avoid  the heat.","live in the desert","are very hard to find","same","same",0.78,0.89,9310,"wopis","live in the desert","are very hard to find","Wopis","all","645a6517e313390917505e79b3797f3b",FALSE,TRUE,TRUE,7,FALSE
"9","critical","vp",9,"Glippets are large creatures with a life-span of about sixty years. They live on the southern continent of Caro and live on the northern continent of Este.","live on the continent of Caro","live on the continent of Este","reverse","same",0.72,0.38,12173,"glippets","live on the continent of Caro","live on the continent of Este","Glippets","generic","645a6517e313390917505e79b3797f3b",FALSE,TRUE,TRUE,7,FALSE
"10","filler","uninterrupted",10,"Apaffs are a nuisance for the aliens. They make burrows everywhere  including in the middle of farmland and in front of their houses. But most aliens find apaffs cute, and tolerate them to some extent.","find apaffs cute","tolerate apaffs to some extent","same","reverse",0.9,0.62,8344,"aliens","find apaffs cute","tolerate apaffs to some extent","Apaffs","most","645a6517e313390917505e79b3797f3b",FALSE,TRUE,TRUE,7,FALSE
"11","critical","s",11,"Fengnors are smaller, nocturnal creatures. They have highly complex  mating habits. They mate for life, and the males often bring twigs and leaves to the females during  courtship. The mated pairs use these twigs and leaves to build their nests. They build their nests in droops and they build their nests in gluers.","build nests in gluers","build nests in droops","reverse","reverse",0.71,0.9,9473,"fengnor mated pairs","build nests in gluers","build nests in droops","Fengnors","generic","645a6517e313390917505e79b3797f3b",FALSE,TRUE,TRUE,7,FALSE
"12","filler","uninterrupted",12,"Nannus only feed on rare flowers called lodeks. Most lodeks only  bloom for one day a year, and most have purple petals.","only bloom for one day a year","have purple petals","reverse","same",0.91,0.84,8806,"lodeks","only bloom for one day a year","have purple petals","Nannus","most","645a6517e313390917505e79b3797f3b",FALSE,TRUE,TRUE,7,FALSE
"13","critical","np",13,"The Ludinos are an alien tribe. They are very industrious and they all are highly spiritual. They ascribe to the Caboo religion and the Daith religion.","ascribe to the Caboo religion","ascribe to the Daith religion","reverse","same",0.83,0.94,8844,"Ludinos","ascribe to the Caboo religion","ascribe to the Daith religion","Ludinos","generic","645a6517e313390917505e79b3797f3b",FALSE,TRUE,TRUE,7,FALSE
"14","filler","uninterrupted",14,"Plovs travel in herds and are very territorial. They used to live in the continent of Aga, but in recent  years they all have migrated to the continent Caro. Now that they have their own territory, they are never attacked by other creatures.","live in the continent of Aga","are attacked by other creatures","reverse","same",0.81,0.92,19280,"plovs","live in the continent of Aga","are attacked by other creatures","Plovs","none","645a6517e313390917505e79b3797f3b",FALSE,TRUE,TRUE,7,FALSE
"15","critical","vp",15,"The aliens have many different kinds of specialized skills and trades, such as basket weaving. To  help make themselves known, crafters join guilds with other crafters of the same trade. Basket weavers are part of the Tinno guild and are part of the Farza guild.","are part of the Tinno guild","are part of the Farza guild","same","same",0.45,0.74,9343,"basket weavers","are part of the Tinno guild","are part of the Farza guild","Crafts","generic","645a6517e313390917505e79b3797f3b",FALSE,TRUE,TRUE,7,FALSE
"16","filler","uninterrupted",16,"Kazzes are a kind of plant that grow all over Dax. They produce fruit in the springtime, but the   fruit is poisonous to animals. No feps eat kazzes nor do they come close.","eat kazzes","come close to kazzes","same","same",0.37,0.71,14043,"feps","eat kazzes","come close to kazzes","Kazzes","none","645a6517e313390917505e79b3797f3b",FALSE,TRUE,TRUE,7,FALSE
"17","critical","s",17,"Ollers spend most of their lives in water, but occasionally come on land to gather berries. Ollers use tools on land, which are passed down from parents to children, so that each family only has one of each kind of tool. While on land, ollers carry their young in trullets and ollers carry their young in guklags.","carry their young in guklags","carry their young in trullets","reverse","reverse",0.92,0.85,9728,"oller families","carry their young in guklags","carry their young in trullets","Ollers","generic","645a6517e313390917505e79b3797f3b",FALSE,TRUE,TRUE,7,FALSE
"18","filler","uninterrupted",18,"Yomis are small insect-like creatures. They all live in the  borderland woodlands. They all fly towards the mountains in search of food, but they need to be careful  of their natural predators, turmens.","live in the borderland woodlands","fly towards the mountains in search of food","same","same",0.52,0.84,9276,"yomis","live in the borderland woodlands","fly towards the mountains in search of food","Yomis","all","645a6517e313390917505e79b3797f3b",FALSE,TRUE,TRUE,7,FALSE
"19","critical","pp",19,"Kweps hunt in packs. Even though they are pack animals, all of them have their own unique preferences.  They hunt at night, looking for creatures sleeping alone. Right before they go hunting, the kweps chew on xorfun and on tunkel.","chew on xorfun","chew on tunkel","same","same",0.85,0.77,8562,"kweps","chew on xorfun","chew on tunkel","Kweps","generic","645a6517e313390917505e79b3797f3b",FALSE,TRUE,TRUE,7,FALSE
"20","filler","uninterrupted",20,"The morseth lives part of its life in the sea and part of its life on land. All morseths come on land to find mates. Most morseths build permanent structures called fendles in order to bury their dead.","build permanent structures called fendles","come on land to find mates","same","same",0.8,0.72,26008,"morseths","build permanent structures called fendles","come on land to find mates","Morseths","most","645a6517e313390917505e79b3797f3b",FALSE,TRUE,TRUE,7,FALSE
"21","critical","pp",21,"Mooks are ferocious creatures that live on the continent of Benli. Benli has dramatic elevation changes unlike any other continent on Dax. Mooks have territories at the tops of tall mountains and at the bottom of deep canyons.","have territories at the tops of tall mountains","have territories at the bottom of deep canyons","reverse","same",0.77,0.89,9517,"mooks","have territories at the tops of tall mountains","have territories at the bottom of deep canyons","Mooks","generic","645a6517e313390917505e79b3797f3b",FALSE,TRUE,TRUE,7,FALSE
"22","filler","uninterrupted",22,"Mupors are very social creatures. Most of them live in extended family groups. Most of them also build large triangular rebos  made of clay and grass.","live in extended family groups","build large triangular rebos","same","same",0.89,0.69,9284,"mupors","live in extended family groups","build large triangular rebos","Mupors","most","645a6517e313390917505e79b3797f3b",FALSE,TRUE,TRUE,7,FALSE
"23","critical","pp",23,"Krens are a tribe of the aliens that live on the continent of Benli, which has no agriculture. Animals like stups, four-legged creatures with  large antlers, are an important resource for the Krens. Stups roam all over the windy highlands of Benli, far from the oceans. Krens work as stup-herders and as fishermen.","are stup-herders","are fishermen","reverse","same",0.84,0.91,9760,"Krens","are stup-herders","are fishermen","Finding food","generic","645a6517e313390917505e79b3797f3b",FALSE,TRUE,TRUE,7,FALSE
"24","filler","uninterrupted",24,"Blins are small creatures. They all have hollow bones and fly. They sing beautiful songs to attract mates.","have hollow bones","fly","reverse","same",0.81,0.9,8780,"blins","have hollow bones","fly","Blins","all","645a6517e313390917505e79b3797f3b",FALSE,TRUE,TRUE,7,FALSE
"25","critical","np",25,"The soil on the continent of Aga is very fertile, and the aliens have learned to grow many crops. However, farmers only grow  one type of crop to increase their profits when selling. During the springtime, the aliens flood their fields to plant fujusi and soroneeks.","flood their fields to plant fujusi","flood their fields to plant soroneeks","reverse","same",0.78,0.9,8561,"farmers in the springtime","flood their fields to plant fujusi","flood their fields to plant soroneeks","Agriculture","generic","645a6517e313390917505e79b3797f3b",FALSE,TRUE,TRUE,7,FALSE
"26","filler","uninterrupted",1,"Wopis only live in the desert and  they all are very hard to find. Wopis sleep during the day to avoid  the heat.","live in the desert","are very hard to find","same","same",1,1,41668,"wopis","live in the desert","are very hard to find","Wopis","all","9a9e45610826bfacedf73f5de2601e51",FALSE,FALSE,FALSE,9,FALSE
"27","filler","uninterrupted",2,"Wint lived a long time ago in the mountains. He loved to travel. All aliens remember Wint and admire him because he was the one that found the lost city of Baff.","remember Wint","admire Wint","same","same",1,1,36071,"aliens","remember Wint","admire Wint","Wint of the Mountains","all","9a9e45610826bfacedf73f5de2601e51",FALSE,FALSE,FALSE,9,FALSE
"28","critical","s",3,"Ollers spend most of their lives in water, but occasionally come on land to gather berries. Ollers use tools on land, which are passed down from parents to children, so that each family only has one of each kind of tool. While on land, ollers carry their young in guklags and ollers carry their young in trullets.","carry their young in guklags","carry their young in trullets","reverse","same",0.5,0.5,121642,"oller families","carry their young in guklags","carry their young in trullets","Ollers","generic","9a9e45610826bfacedf73f5de2601e51",FALSE,FALSE,FALSE,9,FALSE
"29","filler","uninterrupted",4,"The morseth lives part of its life in the sea and part of its life on land. All morseths come on land to find mates. Most morseths build permanent structures called fendles in order to bury their dead.","build permanent structures called fendles","come on land to find mates","same","reverse",0.8,1,33128,"morseths","build permanent structures called fendles","come on land to find mates","Morseths","most","9a9e45610826bfacedf73f5de2601e51",FALSE,FALSE,FALSE,9,FALSE
"30","filler","uninterrupted",5,"The weather on Dax is very constant, not changing much from day to day. Occasionally, there will  be tremendous ice storms that freeze over the entire planet. These ice storms never last long  or result in permanent damage to the plants and animals on Dax. However, the ice storms make the entire sky as dark as night.","result in permanent damage to the plants and animals on Dax","last a long time","reverse","reverse",0.6,0.4,52958,"ice storms on Dax","result in permanent damage to the plants and animals on Dax","last a long time","Weather","none","9a9e45610826bfacedf73f5de2601e51",FALSE,FALSE,FALSE,9,FALSE
"31","critical","s",6,"The Ludinos are an alien tribe. They are very industrious and they all are highly spiritual. They ascribe to the Caboo religion and they ascribe to the Daith religion.","ascribe to the Caboo religion","ascribe to the Daith religion","same","same",0.5,0.5,34579,"Ludinos","ascribe to the Caboo religion","ascribe to the Daith religion","Ludinos","generic","9a9e45610826bfacedf73f5de2601e51",FALSE,FALSE,FALSE,9,FALSE
"32","filler","uninterrupted",7,"Kazzes are a kind of plant that grow all over Dax. They produce fruit in the springtime, but the   fruit is poisonous to animals. No feps eat kazzes nor do they come close.","eat kazzes","come close to kazzes","reverse","same",0,0,21235,"feps","eat kazzes","come close to kazzes","Kazzes","none","9a9e45610826bfacedf73f5de2601e51",FALSE,FALSE,FALSE,9,FALSE
"33","critical","s",8,"Glippets are large creatures with a life-span of about sixty years. They live on the northern continent of Este and they live on the southern continent of Caro.","live on the continent of Caro","live on the continent of Este","same","reverse",0.5,0.5,18731,"glippets","live on the continent of Caro","live on the continent of Este","Glippets","generic","9a9e45610826bfacedf73f5de2601e51",FALSE,FALSE,FALSE,9,FALSE
"34","filler","uninterrupted",9,"Plovs travel in herds and are very territorial. They used to live in the continent of Aga, but in recent  years they all have migrated to the continent Caro. Now that they have their own territory, they are never attacked by other creatures.","live in the continent of Aga","are attacked by other creatures","same","reverse",0,0,39366,"plovs","live in the continent of Aga","are attacked by other creatures","Plovs","none","9a9e45610826bfacedf73f5de2601e51",FALSE,FALSE,FALSE,9,FALSE
"35","filler","uninterrupted",10,"Zorf the mapmaker lives in Astom. In Astom, there are many ways to get  from place to place, but the most popular way is through tunnels. All of the Astom aliens use the tunnels  to get around town from their homes in the residential quarter. Since all of the Astom aliens live there, it's very crowded at night.","use the tunnels to get around town","live in the residential quarter","same","same",1,1,45640,"Astom aliens","use the tunnels to get around town","live in the residential quarter","Zorf the mapmaker","all","9a9e45610826bfacedf73f5de2601e51",FALSE,FALSE,FALSE,9,FALSE
"36","critical","pp",11,"Isooms are tree-like plants that are found in hilly regions. Their fruit is edible, and the aliens often  cultivate isooms for food. Isooms produce fruit with smooth skin and with bumpy skin.","produce fruit with bumpy skin","produce fruit with smooth skin","reverse","reverse",1,1,37018,"isooms","produce fruit with bumpy skin","produce fruit with smooth skin","Isooms","generic","9a9e45610826bfacedf73f5de2601e51",FALSE,FALSE,FALSE,9,FALSE
"37","filler","uninterrupted",12,"Nannus only feed on rare flowers called lodeks. Most lodeks only  bloom for one day a year, and most have purple petals.","only bloom for one day a year","have purple petals","same","reverse",0.7,0.7,39365,"lodeks","only bloom for one day a year","have purple petals","Nannus","most","9a9e45610826bfacedf73f5de2601e51",FALSE,FALSE,FALSE,9,FALSE
"38","critical","s",13,"The aliens have many different kinds of specialized skills and trades, such as basket weaving. To  help make themselves known, crafters join guilds with other crafters of the same trade. Basket weavers are part of the Farza guild and basket weavers are part of the Tinno guild.","are part of the Tinno guild","are part of the Farza guild","same","reverse",1,1,33089,"basket weavers","are part of the Tinno guild","are part of the Farza guild","Crafts","generic","9a9e45610826bfacedf73f5de2601e51",FALSE,FALSE,FALSE,9,FALSE
"39","filler","uninterrupted",14,"Mupors are very social creatures. Most of them live in extended family groups. Most of them also build large triangular rebos  made of clay and grass.","live in extended family groups","build large triangular rebos","reverse","same",0.8,0.8,25958,"mupors","live in extended family groups","build large triangular rebos","Mupors","most","9a9e45610826bfacedf73f5de2601e51",FALSE,FALSE,FALSE,9,FALSE
"40","critical","np",15,"Krens are a tribe of the aliens that live on the continent of Benli, which has no agriculture. Animals like stups, four-legged creatures with  large antlers, are an important resource for the Krens. Stups roam all over the windy highlands of Benli, far from the oceans. Krens work as stup-herders and fishermen.","are stup-herders","are fishermen","reverse","same",1,1,34846,"Krens","are stup-herders","are fishermen","Finding food","generic","9a9e45610826bfacedf73f5de2601e51",FALSE,FALSE,FALSE,9,FALSE
"41","filler","uninterrupted",16,"Apaffs are a nuisance for the aliens. They make burrows everywhere  including in the middle of farmland and in front of their houses. But most aliens find apaffs cute, and tolerate them to some extent.","find apaffs cute","tolerate apaffs to some extent","same","same",0.8,0.8,54387,"aliens","find apaffs cute","tolerate apaffs to some extent","Apaffs","most","9a9e45610826bfacedf73f5de2601e51",FALSE,FALSE,FALSE,9,FALSE
"42","critical","np",17,"Fengnors are smaller, nocturnal creatures. They have highly complex  mating habits. They mate for life, and the males often bring twigs and leaves to the females during  courtship. The mated pairs use these twigs and leaves to build their nests. They build their nests in gluers and droops.","build nests in gluers","build nests in droops","reverse","same",1,1,57608,"fengnor mated pairs","build nests in gluers","build nests in droops","Fengnors","generic","9a9e45610826bfacedf73f5de2601e51",FALSE,FALSE,FALSE,9,FALSE
"43","filler","uninterrupted",18,"Zorxon is the overlord of Dax.  Everyone loves Zorxon because she  provides for all the aliens of Dax. However, Zorxon is now very old  and she rarely makes public appearances anymore.","love Zorxon","are provided for by Zorxon","reverse","same",1,1,29029,"aliens","love Zorxon","are provided for by Zorxon","Zorxon, overlord of Dax","all","9a9e45610826bfacedf73f5de2601e51",FALSE,FALSE,FALSE,9,FALSE
"44","critical","vp",19,"Vimbles are social insects that live in colonies of up to a thousand individuals. They have a single queen, who must find somewhere to hibernate over the winter before  starting a new colony. Vimble queens hibernate in the abandoned burrows of other animals and hibernate in fallen logs.","hibernate in fallen logs","hibernate in the abandoned burrows of other animals","reverse","reverse",1,1,35713,"vimble queens","hibernate in fallen logs","hibernate in the abandoned burrows of other animals","Vimbles","generic","9a9e45610826bfacedf73f5de2601e51",FALSE,FALSE,FALSE,9,FALSE
"45","filler","uninterrupted",20,"Yomis are small insect-like creatures. They all live in the  borderland woodlands. They all fly towards the mountains in search of food, but they need to be careful  of their natural predators, turmens.","live in the borderland woodlands","fly towards the mountains in search of food","reverse","same",1,1,22225,"yomis","live in the borderland woodlands","fly towards the mountains in search of food","Yomis","all","9a9e45610826bfacedf73f5de2601e51",FALSE,FALSE,FALSE,9,FALSE
"46","critical","pp",21,"Mooks are ferocious creatures that live on the continent of Benli. Benli has dramatic elevation changes unlike any other continent on Dax. Mooks have territories at the tops of tall mountains and at the bottom of deep canyons.","have territories at the tops of tall mountains","have territories at the bottom of deep canyons","reverse","same",1,1,32466,"mooks","have territories at the tops of tall mountains","have territories at the bottom of deep canyons","Mooks","generic","9a9e45610826bfacedf73f5de2601e51",FALSE,FALSE,FALSE,9,FALSE
"47","filler","uninterrupted",22,"Supools are the biggest creatures on Dax. They all live in the oceans and  all of them live for a very long time. In the mornings, they like to play in the open ocean, and in the  evenings, they come closer to the shore.","live in the oceans","live for a very long time","same","same",1,1,17793,"supools","live in the oceans","live for a very long time","Supools","all","9a9e45610826bfacedf73f5de2601e51",FALSE,FALSE,FALSE,9,FALSE
"48","critical","s",23,"Kweps hunt in packs. Even though they are pack animals, all of them have their own unique preferences.  They hunt at night, looking for creatures sleeping alone. Right before they go hunting, the kweps chew on xorfun and the kweps chew on tunkel.","chew on xorfun","chew on tunkel","reverse","same",1,1,26930,"kweps","chew on xorfun","chew on tunkel","Kweps","generic","9a9e45610826bfacedf73f5de2601e51",FALSE,FALSE,FALSE,9,FALSE
"49","filler","uninterrupted",24,"Blins are small creatures. They all have hollow bones and fly. They sing beautiful songs to attract mates.","have hollow bones","fly","reverse","same",1,1,16131,"blins","have hollow bones","fly","Blins","all","9a9e45610826bfacedf73f5de2601e51",FALSE,FALSE,FALSE,9,FALSE
"50","critical","pp",25,"The soil on the continent of Aga is very fertile, and the aliens have learned to grow many crops. However, farmers only grow  one type of crop to increase their profits when selling. During the springtime, the aliens flood their fields to plant fujusi and to plant soroneeks.","flood their fields to plant fujusi","flood their fields to plant soroneeks","same","same",1,1,38099,"farmers in the springtime","flood their fields to plant fujusi","flood their fields to plant soroneeks","Agriculture","generic","9a9e45610826bfacedf73f5de2601e51",FALSE,FALSE,FALSE,9,FALSE
"51","filler","uninterrupted",1,"Zorxon is the overlord of Dax.  Everyone loves Zorxon because she  provides for all the aliens of Dax. However, Zorxon is now very old  and she rarely makes public appearances anymore.","love Zorxon","are provided for by Zorxon","same","same",0.97,0.99,34022,"aliens","love Zorxon","are provided for by Zorxon","Zorxon, overlord of Dax","all","f45892b186aeab06cdee625bba4f5a9a",FALSE,FALSE,FALSE,10,FALSE
"52","filler","uninterrupted",2,"The morseth lives part of its life in the sea and part of its life on land. All morseths come on land to find mates. Most morseths build permanent structures called fendles in order to bury their dead.","build permanent structures called fendles","come on land to find mates","reverse","reverse",0.71,0.99,26175,"morseths","build permanent structures called fendles","come on land to find mates","Morseths","most","f45892b186aeab06cdee625bba4f5a9a",FALSE,FALSE,FALSE,10,FALSE
"53","critical","s",3,"Isooms are tree-like plants that are found in hilly regions. Their fruit is edible, and the aliens often  cultivate isooms for food. Isooms produce fruit with smooth skin and isooms produce fruit with bumpy skin.","produce fruit with bumpy skin","produce fruit with smooth skin","same","reverse",0.49,0.51,35879,"isooms","produce fruit with bumpy skin","produce fruit with smooth skin","Isooms","generic","f45892b186aeab06cdee625bba4f5a9a",FALSE,FALSE,FALSE,10,FALSE
"54","filler","uninterrupted",4,"Wint lived a long time ago in the mountains. He loved to travel. All aliens remember Wint and admire him because he was the one that found the lost city of Baff.","remember Wint","admire Wint","same","reverse",0.97,0.98,24848,"aliens","remember Wint","admire Wint","Wint of the Mountains","all","f45892b186aeab06cdee625bba4f5a9a",FALSE,FALSE,FALSE,10,FALSE
"55","critical","np",5,"Ollers spend most of their lives in water, but occasionally come on land to gather berries. Ollers use tools on land, which are passed down from parents to children, so that each family only has one of each kind of tool. While on land, ollers carry their young in trullets and guklags.","carry their young in guklags","carry their young in trullets","reverse","reverse",0.54,0.56,36087,"oller families","carry their young in guklags","carry their young in trullets","Ollers","generic","f45892b186aeab06cdee625bba4f5a9a",FALSE,FALSE,FALSE,10,FALSE
"56","filler","uninterrupted",6,"Supools are the biggest creatures on Dax. They all live in the oceans and  all of them live for a very long time. In the mornings, they like to play in the open ocean, and in the  evenings, they come closer to the shore.","live in the oceans","live for a very long time","same","reverse",1,0.94,23592,"supools","live in the oceans","live for a very long time","Supools","all","f45892b186aeab06cdee625bba4f5a9a",FALSE,FALSE,FALSE,10,FALSE
"57","critical","s",7,"Mooks are ferocious creatures that live on the continent of Benli. Benli has dramatic elevation changes unlike any other continent on Dax. Mooks have territories at the bottom of deep canyons and mooks have territories at the tops of tall mountains.","have territories at the tops of tall mountains","have territories at the bottom of deep canyons","same","reverse",0.55,0.46,31080,"mooks","have territories at the tops of tall mountains","have territories at the bottom of deep canyons","Mooks","generic","f45892b186aeab06cdee625bba4f5a9a",FALSE,FALSE,FALSE,10,FALSE
"58","filler","uninterrupted",8,"Zorf the mapmaker lives in Astom. In Astom, there are many ways to get  from place to place, but the most popular way is through tunnels. All of the Astom aliens use the tunnels  to get around town from their homes in the residential quarter. Since all of the Astom aliens live there, it's very crowded at night.","use the tunnels to get around town","live in the residential quarter","reverse","same",0.94,0.99,115024,"Astom aliens","use the tunnels to get around town","live in the residential quarter","Zorf the mapmaker","all","f45892b186aeab06cdee625bba4f5a9a",FALSE,FALSE,FALSE,10,FALSE
"59","critical","np",9,"Glippets are large creatures with a life-span of about sixty years. They live on the southern continent of Caro and the northern continent of Este.","live on the continent of Caro","live on the continent of Este","same","same",0.55,0.45,29968,"glippets","live on the continent of Caro","live on the continent of Este","Glippets","generic","f45892b186aeab06cdee625bba4f5a9a",FALSE,FALSE,FALSE,10,FALSE
"60","filler","uninterrupted",10,"Wopis only live in the desert and  they all are very hard to find. Wopis sleep during the day to avoid  the heat.","live in the desert","are very hard to find","same","reverse",1,0.87,14568,"wopis","live in the desert","are very hard to find","Wopis","all","f45892b186aeab06cdee625bba4f5a9a",FALSE,FALSE,FALSE,10,FALSE
"61","critical","pp",11,"Fengnors are smaller, nocturnal creatures. They have highly complex  mating habits. They mate for life, and the males often bring twigs and leaves to the females during  courtship. The mated pairs use these twigs and leaves to build their nests. They build their nests in droops and in gluers.","build nests in gluers","build nests in droops","reverse","reverse",0.42,0.57,23824,"fengnor mated pairs","build nests in gluers","build nests in droops","Fengnors","generic","f45892b186aeab06cdee625bba4f5a9a",FALSE,FALSE,FALSE,10,FALSE
"62","filler","uninterrupted",12,"Blins are small creatures. They all have hollow bones and fly. They sing beautiful songs to attract mates.","have hollow bones","fly","same","same",1,0.96,17616,"blins","have hollow bones","fly","Blins","all","f45892b186aeab06cdee625bba4f5a9a",FALSE,FALSE,FALSE,10,FALSE
"63","critical","s",13,"Kweps hunt in packs. Even though they are pack animals, all of them have their own unique preferences.  They hunt at night, looking for creatures sleeping alone. Right before they go hunting, the kweps chew on tunkel and the kweps chew on xorfun.","chew on xorfun","chew on tunkel","same","reverse",0.41,0.57,19448,"kweps","chew on xorfun","chew on tunkel","Kweps","generic","f45892b186aeab06cdee625bba4f5a9a",FALSE,FALSE,FALSE,10,FALSE
"64","filler","uninterrupted",14,"Yomis are small insect-like creatures. They all live in the  borderland woodlands. They all fly towards the mountains in search of food, but they need to be careful  of their natural predators, turmens.","live in the borderland woodlands","fly towards the mountains in search of food","same","reverse",1,0.97,23760,"yomis","live in the borderland woodlands","fly towards the mountains in search of food","Yomis","all","f45892b186aeab06cdee625bba4f5a9a",FALSE,FALSE,FALSE,10,FALSE
"65","critical","s",15,"Krens are a tribe of the aliens that live on the continent of Benli, which has no agriculture. Animals like stups, four-legged creatures with  large antlers, are an important resource for the Krens. Stups roam all over the windy highlands of Benli, far from the oceans. Krens work as fishermen and Krens work as stup-herders.","are stup-herders","are fishermen","same","reverse",0.43,0.56,33318,"Krens","are stup-herders","are fishermen","Finding food","generic","f45892b186aeab06cdee625bba4f5a9a",FALSE,FALSE,FALSE,10,FALSE
"66","filler","uninterrupted",16,"Kazzes are a kind of plant that grow all over Dax. They produce fruit in the springtime, but the   fruit is poisonous to animals. No feps eat kazzes nor do they come close.","eat kazzes","come close to kazzes","same","reverse",0,0.05,16895,"feps","eat kazzes","come close to kazzes","Kazzes","none","f45892b186aeab06cdee625bba4f5a9a",FALSE,FALSE,FALSE,10,FALSE
"67","critical","pp",17,"The aliens have many different kinds of specialized skills and trades, such as basket weaving. To  help make themselves known, crafters join guilds with other crafters of the same trade. Basket weavers are part of the Farza guild and of the Tinno guild.","are part of the Tinno guild","are part of the Farza guild","reverse","reverse",0.39,0.6,26128,"basket weavers","are part of the Tinno guild","are part of the Farza guild","Crafts","generic","f45892b186aeab06cdee625bba4f5a9a",FALSE,FALSE,FALSE,10,FALSE
"68","filler","uninterrupted",18,"The weather on Dax is very constant, not changing much from day to day. Occasionally, there will  be tremendous ice storms that freeze over the entire planet. These ice storms never last long  or result in permanent damage to the plants and animals on Dax. However, the ice storms make the entire sky as dark as night.","result in permanent damage to the plants and animals on Dax","last a long time","reverse","reverse",0.03,0.03,59718,"ice storms on Dax","result in permanent damage to the plants and animals on Dax","last a long time","Weather","none","f45892b186aeab06cdee625bba4f5a9a",FALSE,FALSE,FALSE,10,FALSE
"69","critical","pp",19,"Vimbles are social insects that live in colonies of up to a thousand individuals. They have a single queen, who must find somewhere to hibernate over the winter before  starting a new colony. Vimble queens hibernate in the abandoned burrows of other animals and in fallen logs.","hibernate in fallen logs","hibernate in the abandoned burrows of other animals","same","reverse",0.47,0.44,45641,"vimble queens","hibernate in fallen logs","hibernate in the abandoned burrows of other animals","Vimbles","generic","f45892b186aeab06cdee625bba4f5a9a",FALSE,FALSE,FALSE,10,FALSE
"70","filler","uninterrupted",20,"Nannus only feed on rare flowers called lodeks. Most lodeks only  bloom for one day a year, and most have purple petals.","only bloom for one day a year","have purple petals","reverse","reverse",0.95,0.7,18239,"lodeks","only bloom for one day a year","have purple petals","Nannus","most","f45892b186aeab06cdee625bba4f5a9a",FALSE,FALSE,FALSE,10,FALSE
"71","critical","s",21,"The Ludinos are an alien tribe. They are very industrious and they all are highly spiritual. They ascribe to the Caboo religion and they ascribe to the Daith religion.","ascribe to the Caboo religion","ascribe to the Daith religion","reverse","same",0.54,0.45,12495,"Ludinos","ascribe to the Caboo religion","ascribe to the Daith religion","Ludinos","generic","f45892b186aeab06cdee625bba4f5a9a",FALSE,FALSE,FALSE,10,FALSE
"72","filler","uninterrupted",22,"Mupors are very social creatures. Most of them live in extended family groups. Most of them also build large triangular rebos  made of clay and grass.","live in extended family groups","build large triangular rebos","same","reverse",0.83,0.82,36732,"mupors","live in extended family groups","build large triangular rebos","Mupors","most","f45892b186aeab06cdee625bba4f5a9a",FALSE,FALSE,FALSE,10,FALSE
"73","filler","uninterrupted",23,"Apaffs are a nuisance for the aliens. They make burrows everywhere  including in the middle of farmland and in front of their houses. But most aliens find apaffs cute, and tolerate them to some extent.","find apaffs cute","tolerate apaffs to some extent","reverse","reverse",0.78,0.84,21127,"aliens","find apaffs cute","tolerate apaffs to some extent","Apaffs","most","f45892b186aeab06cdee625bba4f5a9a",FALSE,FALSE,FALSE,10,FALSE
"74","filler","uninterrupted",24,"Plovs travel in herds and are very territorial. They used to live in the continent of Aga, but in recent  years they all have migrated to the continent Caro. Now that they have their own territory, they are never attacked by other creatures.","live in the continent of Aga","are attacked by other creatures","reverse","reverse",0.01,0.02,32147,"plovs","live in the continent of Aga","are attacked by other creatures","Plovs","none","f45892b186aeab06cdee625bba4f5a9a",FALSE,FALSE,FALSE,10,FALSE
"75","critical","np",25,"The soil on the continent of Aga is very fertile, and the aliens have learned to grow many crops. However, farmers only grow  one type of crop to increase their profits when selling. During the springtime, the aliens flood their fields to plant soroneeks and fujusi.","flood their fields to plant fujusi","flood their fields to plant soroneeks","reverse","reverse",0.7,0.7,65976,"farmers in the springtime","flood their fields to plant fujusi","flood their fields to plant soroneeks","Agriculture","generic","f45892b186aeab06cdee625bba4f5a9a",FALSE,FALSE,FALSE,10,FALSE
"76","filler","uninterrupted",1,"Apaffs are a nuisance for the aliens. They make burrows everywhere  including in the middle of farmland and in front of their houses. But most aliens find apaffs cute, and tolerate them to some extent.","find apaffs cute","tolerate apaffs to some extent","same","reverse",0.86,0.83,49660,"aliens","find apaffs cute","tolerate apaffs to some extent","Apaffs","most","9c069c5790858cfb00c23bacc10f1e95",FALSE,TRUE,TRUE,10,FALSE
"77","filler","uninterrupted",2,"Mupors are very social creatures. Most of them live in extended family groups. Most of them also build large triangular rebos  made of clay and grass.","live in extended family groups","build large triangular rebos","reverse","same",0.92,0.93,40078,"mupors","live in extended family groups","build large triangular rebos","Mupors","most","9c069c5790858cfb00c23bacc10f1e95",FALSE,TRUE,TRUE,10,FALSE
"78","critical","pp",3,"The soil on the continent of Aga is very fertile, and the aliens have learned to grow many crops. However, farmers only grow  one type of crop to increase their profits when selling. During the springtime, the aliens flood their fields to plant soroneeks and to plant fujusi.","flood their fields to plant fujusi","flood their fields to plant soroneeks","reverse","reverse",0.92,0.9,71990,"farmers in the springtime","flood their fields to plant fujusi","flood their fields to plant soroneeks","Agriculture","generic","9c069c5790858cfb00c23bacc10f1e95",FALSE,TRUE,TRUE,10,FALSE
"79","filler","uninterrupted",4,"Plovs travel in herds and are very territorial. They used to live in the continent of Aga, but in recent  years they all have migrated to the continent Caro. Now that they have their own territory, they are never attacked by other creatures.","live in the continent of Aga","are attacked by other creatures","same","same",0,0,47253,"plovs","live in the continent of Aga","are attacked by other creatures","Plovs","none","9c069c5790858cfb00c23bacc10f1e95",FALSE,TRUE,TRUE,10,FALSE
"80","critical","s",5,"Isooms are tree-like plants that are found in hilly regions. Their fruit is edible, and the aliens often  cultivate isooms for food. Isooms produce fruit with bumpy skin and isooms produce fruit with smooth skin.","produce fruit with bumpy skin","produce fruit with smooth skin","reverse","same",0.98,1,36528,"isooms","produce fruit with bumpy skin","produce fruit with smooth skin","Isooms","generic","9c069c5790858cfb00c23bacc10f1e95",FALSE,TRUE,TRUE,10,FALSE
"81","filler","uninterrupted",6,"Nannus only feed on rare flowers called lodeks. Most lodeks only  bloom for one day a year, and most have purple petals.","only bloom for one day a year","have purple petals","same","reverse",0.97,0.99,47582,"lodeks","only bloom for one day a year","have purple petals","Nannus","most","9c069c5790858cfb00c23bacc10f1e95",FALSE,TRUE,TRUE,10,FALSE
"82","critical","np",7,"Krens are a tribe of the aliens that live on the continent of Benli, which has no agriculture. Animals like stups, four-legged creatures with  large antlers, are an important resource for the Krens. Stups roam all over the windy highlands of Benli, far from the oceans. Krens work as stup-herders and fishermen.","are stup-herders","are fishermen","same","same",0.98,0.98,43754,"Krens","are stup-herders","are fishermen","Finding food","generic","9c069c5790858cfb00c23bacc10f1e95",FALSE,TRUE,TRUE,10,FALSE
"83","filler","uninterrupted",8,"Wopis only live in the desert and  they all are very hard to find. Wopis sleep during the day to avoid  the heat.","live in the desert","are very hard to find","same","reverse",1,0.98,27878,"wopis","live in the desert","are very hard to find","Wopis","all","9c069c5790858cfb00c23bacc10f1e95",FALSE,TRUE,TRUE,10,FALSE
"84","filler","uninterrupted",9,"Wint lived a long time ago in the mountains. He loved to travel. All aliens remember Wint and admire him because he was the one that found the lost city of Baff.","remember Wint","admire Wint","same","same",0.99,0.99,44935,"aliens","remember Wint","admire Wint","Wint of the Mountains","all","9c069c5790858cfb00c23bacc10f1e95",FALSE,TRUE,TRUE,10,FALSE
"85","critical","s",10,"Fengnors are smaller, nocturnal creatures. They have highly complex  mating habits. They mate for life, and the males often bring twigs and leaves to the females during  courtship. The mated pairs use these twigs and leaves to build their nests. They build their nests in gluers and they build their nests in droops.","build nests in gluers","build nests in droops","reverse","same",0.85,0.78,58213,"fengnor mated pairs","build nests in gluers","build nests in droops","Fengnors","generic","9c069c5790858cfb00c23bacc10f1e95",FALSE,TRUE,TRUE,10,FALSE
"86","filler","uninterrupted",11,"The weather on Dax is very constant, not changing much from day to day. Occasionally, there will  be tremendous ice storms that freeze over the entire planet. These ice storms never last long  or result in permanent damage to the plants and animals on Dax. However, the ice storms make the entire sky as dark as night.","result in permanent damage to the plants and animals on Dax","last a long time","reverse","same",0.88,0,78241,"ice storms on Dax","result in permanent damage to the plants and animals on Dax","last a long time","Weather","none","9c069c5790858cfb00c23bacc10f1e95",FALSE,TRUE,TRUE,10,FALSE
"87","critical","np",12,"Vimbles are social insects that live in colonies of up to a thousand individuals. They have a single queen, who must find somewhere to hibernate over the winter before  starting a new colony. Vimble queens hibernate in the abandoned burrows of other animals and fallen logs.","hibernate in fallen logs","hibernate in the abandoned burrows of other animals","same","reverse",0.02,0.95,171582,"vimble queens","hibernate in fallen logs","hibernate in the abandoned burrows of other animals","Vimbles","generic","9c069c5790858cfb00c23bacc10f1e95",FALSE,TRUE,TRUE,10,FALSE
"88","filler","uninterrupted",13,"Blins are small creatures. They all have hollow bones and fly. They sing beautiful songs to attract mates.","have hollow bones","fly","same","reverse",0.98,0.5,18444,"blins","have hollow bones","fly","Blins","all","9c069c5790858cfb00c23bacc10f1e95",FALSE,TRUE,TRUE,10,FALSE
"89","critical","vp",14,"The Ludinos are an alien tribe. They are very industrious and they all are highly spiritual. They ascribe to the Daith religion and ascribe to the Caboo religion.","ascribe to the Caboo religion","ascribe to the Daith religion","same","reverse",0.57,0.44,56054,"Ludinos","ascribe to the Caboo religion","ascribe to the Daith religion","Ludinos","generic","9c069c5790858cfb00c23bacc10f1e95",FALSE,TRUE,TRUE,10,FALSE
"90","filler","uninterrupted",15,"Zorxon is the overlord of Dax.  Everyone loves Zorxon because she  provides for all the aliens of Dax. However, Zorxon is now very old  and she rarely makes public appearances anymore.","love Zorxon","are provided for by Zorxon","reverse","reverse",0.99,0.03,39180,"aliens","love Zorxon","are provided for by Zorxon","Zorxon, overlord of Dax","all","9c069c5790858cfb00c23bacc10f1e95",FALSE,TRUE,TRUE,10,FALSE
"91","critical","np",16,"Kweps hunt in packs. Even though they are pack animals, all of them have their own unique preferences.  They hunt at night, looking for creatures sleeping alone. Right before they go hunting, the kweps chew on xorfun and tunkel.","chew on xorfun","chew on tunkel","same","same",0.71,0.5,45874,"kweps","chew on xorfun","chew on tunkel","Kweps","generic","9c069c5790858cfb00c23bacc10f1e95",FALSE,TRUE,TRUE,10,FALSE
"92","filler","uninterrupted",17,"Yomis are small insect-like creatures. They all live in the  borderland woodlands. They all fly towards the mountains in search of food, but they need to be careful  of their natural predators, turmens.","live in the borderland woodlands","fly towards the mountains in search of food","same","reverse",0.89,0.85,40426,"yomis","live in the borderland woodlands","fly towards the mountains in search of food","Yomis","all","9c069c5790858cfb00c23bacc10f1e95",FALSE,TRUE,TRUE,10,FALSE
"93","critical","pp",18,"Glippets are large creatures with a life-span of about sixty years. They live on the southern continent of Caro and on the northern continent of Este.","live on the continent of Caro","live on the continent of Este","same","same",0.64,0.18,41076,"glippets","live on the continent of Caro","live on the continent of Este","Glippets","generic","9c069c5790858cfb00c23bacc10f1e95",FALSE,TRUE,TRUE,10,FALSE
"94","filler","uninterrupted",19,"Kazzes are a kind of plant that grow all over Dax. They produce fruit in the springtime, but the   fruit is poisonous to animals. No feps eat kazzes nor do they come close.","eat kazzes","come close to kazzes","reverse","reverse",0,0.97,31192,"feps","eat kazzes","come close to kazzes","Kazzes","none","9c069c5790858cfb00c23bacc10f1e95",FALSE,TRUE,TRUE,10,FALSE
"95","critical","np",20,"The aliens have many different kinds of specialized skills and trades, such as basket weaving. To  help make themselves known, crafters join guilds with other crafters of the same trade. Basket weavers are part of the Farza guild and the Tinno guild.","are part of the Tinno guild","are part of the Farza guild","reverse","reverse",0.43,0.66,29282,"basket weavers","are part of the Tinno guild","are part of the Farza guild","Crafts","generic","9c069c5790858cfb00c23bacc10f1e95",FALSE,TRUE,TRUE,10,FALSE
"96","filler","uninterrupted",21,"The morseth lives part of its life in the sea and part of its life on land. All morseths come on land to find mates. Most morseths build permanent structures called fendles in order to bury their dead.","build permanent structures called fendles","come on land to find mates","reverse","reverse",1,0.96,44307,"morseths","build permanent structures called fendles","come on land to find mates","Morseths","most","9c069c5790858cfb00c23bacc10f1e95",FALSE,TRUE,TRUE,10,FALSE
"97","critical","pp",22,"Mooks are ferocious creatures that live on the continent of Benli. Benli has dramatic elevation changes unlike any other continent on Dax. Mooks have territories at the tops of tall mountains and at the bottom of deep canyons.","have territories at the tops of tall mountains","have territories at the bottom of deep canyons","same","same",0.6,0.45,27252,"mooks","have territories at the tops of tall mountains","have territories at the bottom of deep canyons","Mooks","generic","9c069c5790858cfb00c23bacc10f1e95",FALSE,TRUE,TRUE,10,FALSE
"98","filler","uninterrupted",23,"Supools are the biggest creatures on Dax. They all live in the oceans and  all of them live for a very long time. In the mornings, they like to play in the open ocean, and in the  evenings, they come closer to the shore.","live in the oceans","live for a very long time","reverse","reverse",1,1,27507,"supools","live in the oceans","live for a very long time","Supools","all","9c069c5790858cfb00c23bacc10f1e95",FALSE,TRUE,TRUE,10,FALSE
"99","filler","uninterrupted",24,"Zorf the mapmaker lives in Astom. In Astom, there are many ways to get  from place to place, but the most popular way is through tunnels. All of the Astom aliens use the tunnels  to get around town from their homes in the residential quarter. Since all of the Astom aliens live there, it's very crowded at night.","use the tunnels to get around town","live in the residential quarter","reverse","same",0.98,1,45658,"Astom aliens","use the tunnels to get around town","live in the residential quarter","Zorf the mapmaker","all","9c069c5790858cfb00c23bacc10f1e95",FALSE,TRUE,TRUE,10,FALSE
"100","critical","pp",25,"Ollers spend most of their lives in water, but occasionally come on land to gather berries. Ollers use tools on land, which are passed down from parents to children, so that each family only has one of each kind of tool. While on land, ollers carry their young in trullets and in guklags.","carry their young in guklags","carry their young in trullets","same","reverse",0.5,0.97,48636,"oller families","carry their young in guklags","carry their young in trullets","Ollers","generic","9c069c5790858cfb00c23bacc10f1e95",FALSE,TRUE,TRUE,10,FALSE
"101","filler","uninterrupted",1,"Nannus only feed on rare flowers called lodeks. Most lodeks only  bloom for one day a year, and most have purple petals.","only bloom for one day a year","have purple petals","same","same",0.76,0.5,12630,"lodeks","only bloom for one day a year","have purple petals","Nannus","most","2b5794d92119d7e92d115695bf207170",TRUE,FALSE,TRUE,4,FALSE
"102","filler","uninterrupted",2,"The weather on Dax is very constant, not changing much from day to day. Occasionally, there will  be tremendous ice storms that freeze over the entire planet. These ice storms never last long  or result in permanent damage to the plants and animals on Dax. However, the ice storms make the entire sky as dark as night.","result in permanent damage to the plants and animals on Dax","last a long time","same","reverse",0.42,0.71,10367,"ice storms on Dax","result in permanent damage to the plants and animals on Dax","last a long time","Weather","none","2b5794d92119d7e92d115695bf207170",TRUE,FALSE,TRUE,4,FALSE
"103","critical","np",3,"Krens are a tribe of the aliens that live on the continent of Benli, which has no agriculture. Animals like stups, four-legged creatures with  large antlers, are an important resource for the Krens. Stups roam all over the windy highlands of Benli, far from the oceans. Krens work as stup-herders and fishermen.","are stup-herders","are fishermen","reverse","same",0.67,0.51,10256,"Krens","are stup-herders","are fishermen","Finding food","generic","2b5794d92119d7e92d115695bf207170",TRUE,FALSE,TRUE,4,FALSE
"104","filler","uninterrupted",4,"Kazzes are a kind of plant that grow all over Dax. They produce fruit in the springtime, but the   fruit is poisonous to animals. No feps eat kazzes nor do they come close.","eat kazzes","come close to kazzes","reverse","reverse",0.8,0.42,14631,"feps","eat kazzes","come close to kazzes","Kazzes","none","2b5794d92119d7e92d115695bf207170",TRUE,FALSE,TRUE,4,FALSE
"105","filler","uninterrupted",5,"Supools are the biggest creatures on Dax. They all live in the oceans and  all of them live for a very long time. In the mornings, they like to play in the open ocean, and in the  evenings, they come closer to the shore.","live in the oceans","live for a very long time","same","reverse",0.68,0.48,12559,"supools","live in the oceans","live for a very long time","Supools","all","2b5794d92119d7e92d115695bf207170",TRUE,FALSE,TRUE,4,FALSE
"106","critical","s",6,"Isooms are tree-like plants that are found in hilly regions. Their fruit is edible, and the aliens often  cultivate isooms for food. Isooms produce fruit with smooth skin and isooms produce fruit with bumpy skin.","produce fruit with bumpy skin","produce fruit with smooth skin","reverse","reverse",0.62,0.39,9067,"isooms","produce fruit with bumpy skin","produce fruit with smooth skin","Isooms","generic","2b5794d92119d7e92d115695bf207170",TRUE,FALSE,TRUE,4,FALSE
"107","filler","uninterrupted",7,"Yomis are small insect-like creatures. They all live in the  borderland woodlands. They all fly towards the mountains in search of food, but they need to be careful  of their natural predators, turmens.","live in the borderland woodlands","fly towards the mountains in search of food","same","same",0.41,0.66,15532,"yomis","live in the borderland woodlands","fly towards the mountains in search of food","Yomis","all","2b5794d92119d7e92d115695bf207170",TRUE,FALSE,TRUE,4,FALSE
"108","critical","vp",8,"The Ludinos are an alien tribe. They are very industrious and they all are highly spiritual. They ascribe to the Daith religion and ascribe to the Caboo religion.","ascribe to the Caboo religion","ascribe to the Daith religion","same","reverse",0.46,0.63,11719,"Ludinos","ascribe to the Caboo religion","ascribe to the Daith religion","Ludinos","generic","2b5794d92119d7e92d115695bf207170",TRUE,FALSE,TRUE,4,FALSE
"109","filler","uninterrupted",9,"The morseth lives part of its life in the sea and part of its life on land. All morseths come on land to find mates. Most morseths build permanent structures called fendles in order to bury their dead.","build permanent structures called fendles","come on land to find mates","reverse","same",0.48,0.61,14931,"morseths","build permanent structures called fendles","come on land to find mates","Morseths","most","2b5794d92119d7e92d115695bf207170",TRUE,FALSE,TRUE,4,FALSE
"110","filler","uninterrupted",10,"Wint lived a long time ago in the mountains. He loved to travel. All aliens remember Wint and admire him because he was the one that found the lost city of Baff.","remember Wint","admire Wint","same","same",0.72,0.58,13912,"aliens","remember Wint","admire Wint","Wint of the Mountains","all","2b5794d92119d7e92d115695bf207170",TRUE,FALSE,TRUE,4,FALSE
"111","critical","np",11,"Glippets are large creatures with a life-span of about sixty years. They live on the northern continent of Este and the southern continent of Caro.","live on the continent of Caro","live on the continent of Este","reverse","reverse",0.62,0.81,34251,"glippets","live on the continent of Caro","live on the continent of Este","Glippets","generic","2b5794d92119d7e92d115695bf207170",TRUE,FALSE,TRUE,4,FALSE
"112","filler","uninterrupted",12,"Mupors are very social creatures. Most of them live in extended family groups. Most of them also build large triangular rebos  made of clay and grass.","live in extended family groups","build large triangular rebos","reverse","same",0.72,0.43,9892,"mupors","live in extended family groups","build large triangular rebos","Mupors","most","2b5794d92119d7e92d115695bf207170",TRUE,FALSE,TRUE,4,FALSE
"113","critical","pp",13,"Fengnors are smaller, nocturnal creatures. They have highly complex  mating habits. They mate for life, and the males often bring twigs and leaves to the females during  courtship. The mated pairs use these twigs and leaves to build their nests. They build their nests in droops and in gluers.","build nests in gluers","build nests in droops","reverse","reverse",0.67,0.46,11700,"fengnor mated pairs","build nests in gluers","build nests in droops","Fengnors","generic","2b5794d92119d7e92d115695bf207170",TRUE,FALSE,TRUE,4,FALSE
"114","filler","uninterrupted",14,"Zorxon is the overlord of Dax.  Everyone loves Zorxon because she  provides for all the aliens of Dax. However, Zorxon is now very old  and she rarely makes public appearances anymore.","love Zorxon","are provided for by Zorxon","reverse","same",0.57,0.72,15060,"aliens","love Zorxon","are provided for by Zorxon","Zorxon, overlord of Dax","all","2b5794d92119d7e92d115695bf207170",TRUE,FALSE,TRUE,4,FALSE
"115","critical","np",15,"Mooks are ferocious creatures that live on the continent of Benli. Benli has dramatic elevation changes unlike any other continent on Dax. Mooks have territories at the bottom of deep canyons and the tops of tall mountains.","have territories at the tops of tall mountains","have territories at the bottom of deep canyons","same","reverse",0.81,0.74,10455,"mooks","have territories at the tops of tall mountains","have territories at the bottom of deep canyons","Mooks","generic","2b5794d92119d7e92d115695bf207170",TRUE,FALSE,TRUE,4,FALSE
"116","filler","uninterrupted",16,"Plovs travel in herds and are very territorial. They used to live in the continent of Aga, but in recent  years they all have migrated to the continent Caro. Now that they have their own territory, they are never attacked by other creatures.","live in the continent of Aga","are attacked by other creatures","reverse","reverse",0.71,0.56,8716,"plovs","live in the continent of Aga","are attacked by other creatures","Plovs","none","2b5794d92119d7e92d115695bf207170",TRUE,FALSE,TRUE,4,FALSE
"117","critical","pp",17,"Kweps hunt in packs. Even though they are pack animals, all of them have their own unique preferences.  They hunt at night, looking for creatures sleeping alone. Right before they go hunting, the kweps chew on tunkel and on xorfun.","chew on xorfun","chew on tunkel","reverse","reverse",0.59,0.67,34976,"kweps","chew on xorfun","chew on tunkel","Kweps","generic","2b5794d92119d7e92d115695bf207170",TRUE,FALSE,TRUE,4,FALSE
"118","filler","uninterrupted",18,"Blins are small creatures. They all have hollow bones and fly. They sing beautiful songs to attract mates.","have hollow bones","fly","reverse","reverse",0.74,0.49,15047,"blins","have hollow bones","fly","Blins","all","2b5794d92119d7e92d115695bf207170",TRUE,FALSE,TRUE,4,FALSE
"119","critical","s",19,"Ollers spend most of their lives in water, but occasionally come on land to gather berries. Ollers use tools on land, which are passed down from parents to children, so that each family only has one of each kind of tool. While on land, ollers carry their young in trullets and ollers carry their young in guklags.","carry their young in guklags","carry their young in trullets","reverse","reverse",0.78,0.66,11859,"oller families","carry their young in guklags","carry their young in trullets","Ollers","generic","2b5794d92119d7e92d115695bf207170",TRUE,FALSE,TRUE,4,FALSE
"120","filler","uninterrupted",20,"Wopis only live in the desert and  they all are very hard to find. Wopis sleep during the day to avoid  the heat.","live in the desert","are very hard to find","same","same",0.42,0.75,13560,"wopis","live in the desert","are very hard to find","Wopis","all","2b5794d92119d7e92d115695bf207170",TRUE,FALSE,TRUE,4,FALSE
"121","critical","pp",21,"Vimbles are social insects that live in colonies of up to a thousand individuals. They have a single queen, who must find somewhere to hibernate over the winter before  starting a new colony. Vimble queens hibernate in fallen logs and in the abandoned burrows of other animals.","hibernate in fallen logs","hibernate in the abandoned burrows of other animals","same","same",0.57,0.72,12238,"vimble queens","hibernate in fallen logs","hibernate in the abandoned burrows of other animals","Vimbles","generic","2b5794d92119d7e92d115695bf207170",TRUE,FALSE,TRUE,4,FALSE
"122","filler","uninterrupted",22,"Apaffs are a nuisance for the aliens. They make burrows everywhere  including in the middle of farmland and in front of their houses. But most aliens find apaffs cute, and tolerate them to some extent.","find apaffs cute","tolerate apaffs to some extent","reverse","same",0.61,0.48,9703,"aliens","find apaffs cute","tolerate apaffs to some extent","Apaffs","most","2b5794d92119d7e92d115695bf207170",TRUE,FALSE,TRUE,4,FALSE
"123","critical","np",23,"The soil on the continent of Aga is very fertile, and the aliens have learned to grow many crops. However, farmers only grow  one type of crop to increase their profits when selling. During the springtime, the aliens flood their fields to plant fujusi and soroneeks.","flood their fields to plant fujusi","flood their fields to plant soroneeks","same","same",0.52,0.71,24049,"farmers in the springtime","flood their fields to plant fujusi","flood their fields to plant soroneeks","Agriculture","generic","2b5794d92119d7e92d115695bf207170",TRUE,FALSE,TRUE,4,FALSE
"124","filler","uninterrupted",24,"Zorf the mapmaker lives in Astom. In Astom, there are many ways to get  from place to place, but the most popular way is through tunnels. All of the Astom aliens use the tunnels  to get around town from their homes in the residential quarter. Since all of the Astom aliens live there, it's very crowded at night.","use the tunnels to get around town","live in the residential quarter","reverse","same",0.73,0.54,19643,"Astom aliens","use the tunnels to get around town","live in the residential quarter","Zorf the mapmaker","all","2b5794d92119d7e92d115695bf207170",TRUE,FALSE,TRUE,4,FALSE
"125","critical","vp",25,"The aliens have many different kinds of specialized skills and trades, such as basket weaving. To  help make themselves known, crafters join guilds with other crafters of the same trade. Basket weavers are part of the Tinno guild and are part of the Farza guild.","are part of the Tinno guild","are part of the Farza guild","reverse","same",0.67,0.42,10747,"basket weavers","are part of the Tinno guild","are part of the Farza guild","Crafts","generic","2b5794d92119d7e92d115695bf207170",TRUE,FALSE,TRUE,4,FALSE
"126","filler","uninterrupted",1,"Wopis only live in the desert and  they all are very hard to find. Wopis sleep during the day to avoid  the heat.","live in the desert","are very hard to find","reverse","reverse",1,1,22756,"wopis","live in the desert","are very hard to find","Wopis","all","b0b009fa310999f3c6a62369f60ee4ea",FALSE,FALSE,FALSE,8,FALSE
"127","filler","uninterrupted",2,"Wint lived a long time ago in the mountains. He loved to travel. All aliens remember Wint and admire him because he was the one that found the lost city of Baff.","remember Wint","admire Wint","same","same",0.98,0.98,19334,"aliens","remember Wint","admire Wint","Wint of the Mountains","all","b0b009fa310999f3c6a62369f60ee4ea",FALSE,FALSE,FALSE,8,FALSE
"128","filler","uninterrupted",3,"Plovs travel in herds and are very territorial. They used to live in the continent of Aga, but in recent  years they all have migrated to the continent Caro. Now that they have their own territory, they are never attacked by other creatures.","live in the continent of Aga","are attacked by other creatures","same","reverse",0.01,0.02,29858,"plovs","live in the continent of Aga","are attacked by other creatures","Plovs","none","b0b009fa310999f3c6a62369f60ee4ea",FALSE,FALSE,FALSE,8,FALSE
"129","critical","s",4,"Fengnors are smaller, nocturnal creatures. They have highly complex  mating habits. They mate for life, and the males often bring twigs and leaves to the females during  courtship. The mated pairs use these twigs and leaves to build their nests. They build their nests in droops and they build their nests in gluers.","build nests in gluers","build nests in droops","reverse","reverse",1,1,23285,"fengnor mated pairs","build nests in gluers","build nests in droops","Fengnors","generic","b0b009fa310999f3c6a62369f60ee4ea",FALSE,FALSE,FALSE,8,FALSE
"130","filler","uninterrupted",5,"Kazzes are a kind of plant that grow all over Dax. They produce fruit in the springtime, but the   fruit is poisonous to animals. No feps eat kazzes nor do they come close.","eat kazzes","come close to kazzes","reverse","reverse",0.02,0.02,32255,"feps","eat kazzes","come close to kazzes","Kazzes","none","b0b009fa310999f3c6a62369f60ee4ea",FALSE,FALSE,FALSE,8,FALSE
"131","critical","np",6,"Krens are a tribe of the aliens that live on the continent of Benli, which has no agriculture. Animals like stups, four-legged creatures with  large antlers, are an important resource for the Krens. Stups roam all over the windy highlands of Benli, far from the oceans. Krens work as fishermen and stup-herders.","are stup-herders","are fishermen","same","reverse",0.5,0.5,35811,"Krens","are stup-herders","are fishermen","Finding food","generic","b0b009fa310999f3c6a62369f60ee4ea",FALSE,FALSE,FALSE,8,FALSE
"132","filler","uninterrupted",7,"The morseth lives part of its life in the sea and part of its life on land. All morseths come on land to find mates. Most morseths build permanent structures called fendles in order to bury their dead.","build permanent structures called fendles","come on land to find mates","same","reverse",0.64,1,24293,"morseths","build permanent structures called fendles","come on land to find mates","Morseths","most","b0b009fa310999f3c6a62369f60ee4ea",FALSE,FALSE,FALSE,8,FALSE
"133","filler","uninterrupted",8,"Supools are the biggest creatures on Dax. They all live in the oceans and  all of them live for a very long time. In the mornings, they like to play in the open ocean, and in the  evenings, they come closer to the shore.","live in the oceans","live for a very long time","reverse","same",0.99,0.98,58301,"supools","live in the oceans","live for a very long time","Supools","all","b0b009fa310999f3c6a62369f60ee4ea",FALSE,FALSE,FALSE,8,FALSE
"134","critical","np",9,"Mooks are ferocious creatures that live on the continent of Benli. Benli has dramatic elevation changes unlike any other continent on Dax. Mooks have territories at the bottom of deep canyons and the tops of tall mountains.","have territories at the tops of tall mountains","have territories at the bottom of deep canyons","same","reverse",0.5,0.5,22812,"mooks","have territories at the tops of tall mountains","have territories at the bottom of deep canyons","Mooks","generic","b0b009fa310999f3c6a62369f60ee4ea",FALSE,FALSE,FALSE,8,FALSE
"135","filler","uninterrupted",10,"Zorxon is the overlord of Dax.  Everyone loves Zorxon because she  provides for all the aliens of Dax. However, Zorxon is now very old  and she rarely makes public appearances anymore.","love Zorxon","are provided for by Zorxon","same","reverse",0.99,0.99,17977,"aliens","love Zorxon","are provided for by Zorxon","Zorxon, overlord of Dax","all","b0b009fa310999f3c6a62369f60ee4ea",FALSE,FALSE,FALSE,8,FALSE
"136","critical","np",11,"Kweps hunt in packs. Even though they are pack animals, all of them have their own unique preferences.  They hunt at night, looking for creatures sleeping alone. Right before they go hunting, the kweps chew on tunkel and xorfun.","chew on xorfun","chew on tunkel","reverse","reverse",0.99,1,11751,"kweps","chew on xorfun","chew on tunkel","Kweps","generic","b0b009fa310999f3c6a62369f60ee4ea",FALSE,FALSE,FALSE,8,FALSE
"137","filler","uninterrupted",12,"Zorf the mapmaker lives in Astom. In Astom, there are many ways to get  from place to place, but the most popular way is through tunnels. All of the Astom aliens use the tunnels  to get around town from their homes in the residential quarter. Since all of the Astom aliens live there, it's very crowded at night.","use the tunnels to get around town","live in the residential quarter","same","same",1,0.68,22207,"Astom aliens","use the tunnels to get around town","live in the residential quarter","Zorf the mapmaker","all","b0b009fa310999f3c6a62369f60ee4ea",FALSE,FALSE,FALSE,8,FALSE
"138","critical","s",13,"The soil on the continent of Aga is very fertile, and the aliens have learned to grow many crops. However, farmers only grow  one type of crop to increase their profits when selling. During the springtime, the aliens flood their fields to plant soroneeks and the aliens flood their fields to plant fujusi.","flood their fields to plant fujusi","flood their fields to plant soroneeks","same","reverse",1,1,29102,"farmers in the springtime","flood their fields to plant fujusi","flood their fields to plant soroneeks","Agriculture","generic","b0b009fa310999f3c6a62369f60ee4ea",FALSE,FALSE,FALSE,8,FALSE
"139","filler","uninterrupted",14,"Blins are small creatures. They all have hollow bones and fly. They sing beautiful songs to attract mates.","have hollow bones","fly","reverse","same",1,1,20831,"blins","have hollow bones","fly","Blins","all","b0b009fa310999f3c6a62369f60ee4ea",FALSE,FALSE,FALSE,8,FALSE
"140","critical","np",15,"The Ludinos are an alien tribe. They are very industrious and they all are highly spiritual. They ascribe to the Caboo religion and the Daith religion.","ascribe to the Caboo religion","ascribe to the Daith religion","same","same",0.5,0.5,19296,"Ludinos","ascribe to the Caboo religion","ascribe to the Daith religion","Ludinos","generic","b0b009fa310999f3c6a62369f60ee4ea",FALSE,FALSE,FALSE,8,FALSE
"141","filler","uninterrupted",16,"Mupors are very social creatures. Most of them live in extended family groups. Most of them also build large triangular rebos  made of clay and grass.","live in extended family groups","build large triangular rebos","same","reverse",0.51,0.49,27368,"mupors","live in extended family groups","build large triangular rebos","Mupors","most","b0b009fa310999f3c6a62369f60ee4ea",FALSE,FALSE,FALSE,8,FALSE
"142","critical","pp",17,"Ollers spend most of their lives in water, but occasionally come on land to gather berries. Ollers use tools on land, which are passed down from parents to children, so that each family only has one of each kind of tool. While on land, ollers carry their young in trullets and in guklags.","carry their young in guklags","carry their young in trullets","same","reverse",1,1,31071,"oller families","carry their young in guklags","carry their young in trullets","Ollers","generic","b0b009fa310999f3c6a62369f60ee4ea",FALSE,FALSE,FALSE,8,FALSE
"143","filler","uninterrupted",18,"The weather on Dax is very constant, not changing much from day to day. Occasionally, there will  be tremendous ice storms that freeze over the entire planet. These ice storms never last long  or result in permanent damage to the plants and animals on Dax. However, the ice storms make the entire sky as dark as night.","result in permanent damage to the plants and animals on Dax","last a long time","reverse","reverse",0.1,0.29,58207,"ice storms on Dax","result in permanent damage to the plants and animals on Dax","last a long time","Weather","none","b0b009fa310999f3c6a62369f60ee4ea",FALSE,FALSE,FALSE,8,FALSE
"144","critical","s",19,"Isooms are tree-like plants that are found in hilly regions. Their fruit is edible, and the aliens often  cultivate isooms for food. Isooms produce fruit with bumpy skin and isooms produce fruit with smooth skin.","produce fruit with bumpy skin","produce fruit with smooth skin","reverse","same",0.5,0.5,28240,"isooms","produce fruit with bumpy skin","produce fruit with smooth skin","Isooms","generic","b0b009fa310999f3c6a62369f60ee4ea",FALSE,FALSE,FALSE,8,FALSE
"145","filler","uninterrupted",20,"Nannus only feed on rare flowers called lodeks. Most lodeks only  bloom for one day a year, and most have purple petals.","only bloom for one day a year","have purple petals","same","reverse",0.77,0.79,50194,"lodeks","only bloom for one day a year","have purple petals","Nannus","most","b0b009fa310999f3c6a62369f60ee4ea",FALSE,FALSE,FALSE,8,FALSE
"146","critical","pp",21,"Vimbles are social insects that live in colonies of up to a thousand individuals. They have a single queen, who must find somewhere to hibernate over the winter before  starting a new colony. Vimble queens hibernate in the abandoned burrows of other animals and in fallen logs.","hibernate in fallen logs","hibernate in the abandoned burrows of other animals","same","reverse",0.5,0.5,109874,"vimble queens","hibernate in fallen logs","hibernate in the abandoned burrows of other animals","Vimbles","generic","b0b009fa310999f3c6a62369f60ee4ea",FALSE,FALSE,FALSE,8,FALSE
"147","filler","uninterrupted",22,"Apaffs are a nuisance for the aliens. They make burrows everywhere  including in the middle of farmland and in front of their houses. But most aliens find apaffs cute, and tolerate them to some extent.","find apaffs cute","tolerate apaffs to some extent","same","reverse",0.86,0.8,16382,"aliens","find apaffs cute","tolerate apaffs to some extent","Apaffs","most","b0b009fa310999f3c6a62369f60ee4ea",FALSE,FALSE,FALSE,8,FALSE
"148","critical","np",23,"Glippets are large creatures with a life-span of about sixty years. They live on the northern continent of Este and the southern continent of Caro.","live on the continent of Caro","live on the continent of Este","same","reverse",1,1,16223,"glippets","live on the continent of Caro","live on the continent of Este","Glippets","generic","b0b009fa310999f3c6a62369f60ee4ea",FALSE,FALSE,FALSE,8,FALSE
"149","filler","uninterrupted",24,"Yomis are small insect-like creatures. They all live in the  borderland woodlands. They all fly towards the mountains in search of food, but they need to be careful  of their natural predators, turmens.","live in the borderland woodlands","fly towards the mountains in search of food","reverse","reverse",1,1,193553,"yomis","live in the borderland woodlands","fly towards the mountains in search of food","Yomis","all","b0b009fa310999f3c6a62369f60ee4ea",FALSE,FALSE,FALSE,8,FALSE
"150","critical","np",25,"The aliens have many different kinds of specialized skills and trades, such as basket weaving. To  help make themselves known, crafters join guilds with other crafters of the same trade. Basket weavers are part of the Tinno guild and the Farza guild.","are part of the Tinno guild","are part of the Farza guild","same","same",1,1,23691,"basket weavers","are part of the Tinno guild","are part of the Farza guild","Crafts","generic","b0b009fa310999f3c6a62369f60ee4ea",FALSE,FALSE,FALSE,8,FALSE
"151","filler","uninterrupted",1,"Apaffs are a nuisance for the aliens. They make burrows everywhere  including in the middle of farmland and in front of their houses. But most aliens find apaffs cute, and tolerate them to some extent.","find apaffs cute","tolerate apaffs to some extent","same","reverse",0.74,0.71,28071,"aliens","find apaffs cute","tolerate apaffs to some extent","Apaffs","most","8b2c8ccf3a2cb3195fede2d26826e767",FALSE,FALSE,FALSE,9,FALSE
"152","filler","uninterrupted",2,"Plovs travel in herds and are very territorial. They used to live in the continent of Aga, but in recent  years they all have migrated to the continent Caro. Now that they have their own territory, they are never attacked by other creatures.","live in the continent of Aga","are attacked by other creatures","reverse","same",1,0,44495,"plovs","live in the continent of Aga","are attacked by other creatures","Plovs","none","8b2c8ccf3a2cb3195fede2d26826e767",FALSE,FALSE,FALSE,9,FALSE
"153","critical","vp",3,"Mooks are ferocious creatures that live on the continent of Benli. Benli has dramatic elevation changes unlike any other continent on Dax. Mooks have territories at the bottom of deep canyons and have territories at the tops of tall mountains.","have territories at the tops of tall mountains","have territories at the bottom of deep canyons","same","reverse",0.5,0.5,65864,"mooks","have territories at the tops of tall mountains","have territories at the bottom of deep canyons","Mooks","generic","8b2c8ccf3a2cb3195fede2d26826e767",FALSE,FALSE,FALSE,9,FALSE
"154","filler","uninterrupted",4,"Kazzes are a kind of plant that grow all over Dax. They produce fruit in the springtime, but the   fruit is poisonous to animals. No feps eat kazzes nor do they come close.","eat kazzes","come close to kazzes","reverse","reverse",0,0,27130,"feps","eat kazzes","come close to kazzes","Kazzes","none","8b2c8ccf3a2cb3195fede2d26826e767",FALSE,FALSE,FALSE,9,FALSE
"155","filler","uninterrupted",5,"Zorf the mapmaker lives in Astom. In Astom, there are many ways to get  from place to place, but the most popular way is through tunnels. All of the Astom aliens use the tunnels  to get around town from their homes in the residential quarter. Since all of the Astom aliens live there, it's very crowded at night.","use the tunnels to get around town","live in the residential quarter","reverse","same",0.86,0.99,60101,"Astom aliens","use the tunnels to get around town","live in the residential quarter","Zorf the mapmaker","all","8b2c8ccf3a2cb3195fede2d26826e767",FALSE,FALSE,FALSE,9,FALSE
"156","critical","pp",6,"The soil on the continent of Aga is very fertile, and the aliens have learned to grow many crops. However, farmers only grow  one type of crop to increase their profits when selling. During the springtime, the aliens flood their fields to plant soroneeks and to plant fujusi.","flood their fields to plant fujusi","flood their fields to plant soroneeks","reverse","reverse",0.86,0.86,48011,"farmers in the springtime","flood their fields to plant fujusi","flood their fields to plant soroneeks","Agriculture","generic","8b2c8ccf3a2cb3195fede2d26826e767",FALSE,FALSE,FALSE,9,FALSE
"157","filler","uninterrupted",7,"Wopis only live in the desert and  they all are very hard to find. Wopis sleep during the day to avoid  the heat.","live in the desert","are very hard to find","same","same",1,0.9,30217,"wopis","live in the desert","are very hard to find","Wopis","all","8b2c8ccf3a2cb3195fede2d26826e767",FALSE,FALSE,FALSE,9,FALSE
"158","critical","pp",8,"Isooms are tree-like plants that are found in hilly regions. Their fruit is edible, and the aliens often  cultivate isooms for food. Isooms produce fruit with bumpy skin and with smooth skin.","produce fruit with bumpy skin","produce fruit with smooth skin","reverse","same",0.87,1,36658,"isooms","produce fruit with bumpy skin","produce fruit with smooth skin","Isooms","generic","8b2c8ccf3a2cb3195fede2d26826e767",FALSE,FALSE,FALSE,9,FALSE
"159","filler","uninterrupted",9,"Mupors are very social creatures. Most of them live in extended family groups. Most of them also build large triangular rebos  made of clay and grass.","live in extended family groups","build large triangular rebos","reverse","reverse",0.93,1,28054,"mupors","live in extended family groups","build large triangular rebos","Mupors","most","8b2c8ccf3a2cb3195fede2d26826e767",FALSE,FALSE,FALSE,9,FALSE
"160","critical","pp",10,"Fengnors are smaller, nocturnal creatures. They have highly complex  mating habits. They mate for life, and the males often bring twigs and leaves to the females during  courtship. The mated pairs use these twigs and leaves to build their nests. They build their nests in gluers and in droops.","build nests in gluers","build nests in droops","reverse","same",0.84,0.88,59494,"fengnor mated pairs","build nests in gluers","build nests in droops","Fengnors","generic","8b2c8ccf3a2cb3195fede2d26826e767",FALSE,FALSE,FALSE,9,FALSE
"161","filler","uninterrupted",11,"Supools are the biggest creatures on Dax. They all live in the oceans and  all of them live for a very long time. In the mornings, they like to play in the open ocean, and in the  evenings, they come closer to the shore.","live in the oceans","live for a very long time","same","reverse",1,0.93,57301,"supools","live in the oceans","live for a very long time","Supools","all","8b2c8ccf3a2cb3195fede2d26826e767",FALSE,FALSE,FALSE,9,FALSE
"162","critical","vp",12,"Glippets are large creatures with a life-span of about sixty years. They live on the southern continent of Caro and live on the northern continent of Este.","live on the continent of Caro","live on the continent of Este","same","same",0.62,0.48,34548,"glippets","live on the continent of Caro","live on the continent of Este","Glippets","generic","8b2c8ccf3a2cb3195fede2d26826e767",FALSE,FALSE,FALSE,9,FALSE
"163","filler","uninterrupted",13,"Zorxon is the overlord of Dax.  Everyone loves Zorxon because she  provides for all the aliens of Dax. However, Zorxon is now very old  and she rarely makes public appearances anymore.","love Zorxon","are provided for by Zorxon","same","reverse",0.98,0.9,27477,"aliens","love Zorxon","are provided for by Zorxon","Zorxon, overlord of Dax","all","8b2c8ccf3a2cb3195fede2d26826e767",FALSE,FALSE,FALSE,9,FALSE
"164","critical","vp",14,"Krens are a tribe of the aliens that live on the continent of Benli, which has no agriculture. Animals like stups, four-legged creatures with  large antlers, are an important resource for the Krens. Stups roam all over the windy highlands of Benli, far from the oceans. Krens work as stup-herders and work as fishermen.","are stup-herders","are fishermen","same","same",0.92,0.87,44340,"Krens","are stup-herders","are fishermen","Finding food","generic","8b2c8ccf3a2cb3195fede2d26826e767",FALSE,FALSE,FALSE,9,FALSE
"165","filler","uninterrupted",15,"Yomis are small insect-like creatures. They all live in the  borderland woodlands. They all fly towards the mountains in search of food, but they need to be careful  of their natural predators, turmens.","live in the borderland woodlands","fly towards the mountains in search of food","same","same",0.83,0.86,26018,"yomis","live in the borderland woodlands","fly towards the mountains in search of food","Yomis","all","8b2c8ccf3a2cb3195fede2d26826e767",FALSE,FALSE,FALSE,9,FALSE
"166","critical","vp",16,"Ollers spend most of their lives in water, but occasionally come on land to gather berries. Ollers use tools on land, which are passed down from parents to children, so that each family only has one of each kind of tool. While on land, ollers carry their young in trullets and carry their young in guklags.","carry their young in guklags","carry their young in trullets","reverse","reverse",0.84,0.9,19892,"oller families","carry their young in guklags","carry their young in trullets","Ollers","generic","8b2c8ccf3a2cb3195fede2d26826e767",FALSE,FALSE,FALSE,9,FALSE
"167","filler","uninterrupted",17,"Wint lived a long time ago in the mountains. He loved to travel. All aliens remember Wint and admire him because he was the one that found the lost city of Baff.","remember Wint","admire Wint","reverse","same",0.99,0.9,24163,"aliens","remember Wint","admire Wint","Wint of the Mountains","all","8b2c8ccf3a2cb3195fede2d26826e767",FALSE,FALSE,FALSE,9,FALSE
"168","critical","s",18,"The aliens have many different kinds of specialized skills and trades, such as basket weaving. To  help make themselves known, crafters join guilds with other crafters of the same trade. Basket weavers are part of the Tinno guild and basket weavers are part of the Farza guild.","are part of the Tinno guild","are part of the Farza guild","reverse","same",0.84,0.92,39479,"basket weavers","are part of the Tinno guild","are part of the Farza guild","Crafts","generic","8b2c8ccf3a2cb3195fede2d26826e767",FALSE,FALSE,FALSE,9,FALSE
"169","filler","uninterrupted",19,"Nannus only feed on rare flowers called lodeks. Most lodeks only  bloom for one day a year, and most have purple petals.","only bloom for one day a year","have purple petals","same","same",0.82,1,31145,"lodeks","only bloom for one day a year","have purple petals","Nannus","most","8b2c8ccf3a2cb3195fede2d26826e767",FALSE,FALSE,FALSE,9,FALSE
"170","critical","s",20,"Kweps hunt in packs. Even though they are pack animals, all of them have their own unique preferences.  They hunt at night, looking for creatures sleeping alone. Right before they go hunting, the kweps chew on xorfun and the kweps chew on tunkel.","chew on xorfun","chew on tunkel","reverse","same",1,1,29258,"kweps","chew on xorfun","chew on tunkel","Kweps","generic","8b2c8ccf3a2cb3195fede2d26826e767",FALSE,FALSE,FALSE,9,FALSE
"171","filler","uninterrupted",21,"The weather on Dax is very constant, not changing much from day to day. Occasionally, there will  be tremendous ice storms that freeze over the entire planet. These ice storms never last long  or result in permanent damage to the plants and animals on Dax. However, the ice storms make the entire sky as dark as night.","result in permanent damage to the plants and animals on Dax","last a long time","reverse","reverse",0.93,0.91,12059,"ice storms on Dax","result in permanent damage to the plants and animals on Dax","last a long time","Weather","none","8b2c8ccf3a2cb3195fede2d26826e767",FALSE,FALSE,FALSE,9,FALSE
"172","critical","np",22,"Vimbles are social insects that live in colonies of up to a thousand individuals. They have a single queen, who must find somewhere to hibernate over the winter before  starting a new colony. Vimble queens hibernate in fallen logs and the abandoned burrows of other animals.","hibernate in fallen logs","hibernate in the abandoned burrows of other animals","reverse","same",1,0.98,30512,"vimble queens","hibernate in fallen logs","hibernate in the abandoned burrows of other animals","Vimbles","generic","8b2c8ccf3a2cb3195fede2d26826e767",FALSE,FALSE,FALSE,9,FALSE
"173","filler","uninterrupted",23,"The morseth lives part of its life in the sea and part of its life on land. All morseths come on land to find mates. Most morseths build permanent structures called fendles in order to bury their dead.","build permanent structures called fendles","come on land to find mates","same","reverse",0.88,0.73,13536,"morseths","build permanent structures called fendles","come on land to find mates","Morseths","most","8b2c8ccf3a2cb3195fede2d26826e767",FALSE,FALSE,FALSE,9,FALSE
"174","critical","vp",24,"The Ludinos are an alien tribe. They are very industrious and they all are highly spiritual. They ascribe to the Caboo religion and ascribe to the Daith religion.","ascribe to the Caboo religion","ascribe to the Daith religion","same","same",0.54,0.46,22436,"Ludinos","ascribe to the Caboo religion","ascribe to the Daith religion","Ludinos","generic","8b2c8ccf3a2cb3195fede2d26826e767",FALSE,FALSE,FALSE,9,FALSE
"175","filler","uninterrupted",25,"Blins are small creatures. They all have hollow bones and fly. They sing beautiful songs to attract mates.","have hollow bones","fly","reverse","same",1,0.92,37009,"blins","have hollow bones","fly","Blins","all","8b2c8ccf3a2cb3195fede2d26826e767",FALSE,FALSE,FALSE,9,FALSE
"176","filler","uninterrupted",1,"Zorxon is the overlord of Dax.  Everyone loves Zorxon because she  provides for all the aliens of Dax. However, Zorxon is now very old  and she rarely makes public appearances anymore.","love Zorxon","are provided for by Zorxon","reverse","same",1,1,46612,"aliens","love Zorxon","are provided for by Zorxon","Zorxon, overlord of Dax","all","51c779342eb79cb81ac7c6876a14c6ab",FALSE,FALSE,FALSE,9,FALSE
"177","filler","uninterrupted",2,"The morseth lives part of its life in the sea and part of its life on land. All morseths come on land to find mates. Most morseths build permanent structures called fendles in order to bury their dead.","build permanent structures called fendles","come on land to find mates","reverse","reverse",0.74,1,43552,"morseths","build permanent structures called fendles","come on land to find mates","Morseths","most","51c779342eb79cb81ac7c6876a14c6ab",FALSE,FALSE,FALSE,9,FALSE
"178","critical","s",3,"The aliens have many different kinds of specialized skills and trades, such as basket weaving. To  help make themselves known, crafters join guilds with other crafters of the same trade. Basket weavers are part of the Tinno guild and basket weavers are part of the Farza guild.","are part of the Tinno guild","are part of the Farza guild","same","same",0.36,0.35,60772,"basket weavers","are part of the Tinno guild","are part of the Farza guild","Crafts","generic","51c779342eb79cb81ac7c6876a14c6ab",FALSE,FALSE,FALSE,9,FALSE
"179","filler","uninterrupted",4,"Yomis are small insect-like creatures. They all live in the  borderland woodlands. They all fly towards the mountains in search of food, but they need to be careful  of their natural predators, turmens.","live in the borderland woodlands","fly towards the mountains in search of food","reverse","reverse",1,1,43032,"yomis","live in the borderland woodlands","fly towards the mountains in search of food","Yomis","all","51c779342eb79cb81ac7c6876a14c6ab",FALSE,FALSE,FALSE,9,FALSE
"180","critical","pp",5,"Isooms are tree-like plants that are found in hilly regions. Their fruit is edible, and the aliens often  cultivate isooms for food. Isooms produce fruit with bumpy skin and with smooth skin.","produce fruit with bumpy skin","produce fruit with smooth skin","reverse","same",0.51,0.48,48194,"isooms","produce fruit with bumpy skin","produce fruit with smooth skin","Isooms","generic","51c779342eb79cb81ac7c6876a14c6ab",FALSE,FALSE,FALSE,9,FALSE
"181","filler","uninterrupted",6,"Mupors are very social creatures. Most of them live in extended family groups. Most of them also build large triangular rebos  made of clay and grass.","live in extended family groups","build large triangular rebos","same","same",0.7,0.74,71768,"mupors","live in extended family groups","build large triangular rebos","Mupors","most","51c779342eb79cb81ac7c6876a14c6ab",FALSE,FALSE,FALSE,9,FALSE
"182","critical","vp",7,"Mooks are ferocious creatures that live on the continent of Benli. Benli has dramatic elevation changes unlike any other continent on Dax. Mooks have territories at the tops of tall mountains and have territories at the bottom of deep canyons.","have territories at the tops of tall mountains","have territories at the bottom of deep canyons","same","same",0.49,0.51,43943,"mooks","have territories at the tops of tall mountains","have territories at the bottom of deep canyons","Mooks","generic","51c779342eb79cb81ac7c6876a14c6ab",FALSE,FALSE,FALSE,9,FALSE
"183","filler","uninterrupted",8,"Wint lived a long time ago in the mountains. He loved to travel. All aliens remember Wint and admire him because he was the one that found the lost city of Baff.","remember Wint","admire Wint","same","reverse",1,0.93,28139,"aliens","remember Wint","admire Wint","Wint of the Mountains","all","51c779342eb79cb81ac7c6876a14c6ab",FALSE,FALSE,FALSE,9,FALSE
"184","critical","pp",9,"The Ludinos are an alien tribe. They are very industrious and they all are highly spiritual. They ascribe to the Caboo religion and to the Daith religion.","ascribe to the Caboo religion","ascribe to the Daith religion","same","same",0.51,0.51,13266,"Ludinos","ascribe to the Caboo religion","ascribe to the Daith religion","Ludinos","generic","51c779342eb79cb81ac7c6876a14c6ab",FALSE,FALSE,FALSE,9,FALSE
"185","filler","uninterrupted",10,"Nannus only feed on rare flowers called lodeks. Most lodeks only  bloom for one day a year, and most have purple petals.","only bloom for one day a year","have purple petals","reverse","same",0.84,0.78,20195,"lodeks","only bloom for one day a year","have purple petals","Nannus","most","51c779342eb79cb81ac7c6876a14c6ab",FALSE,FALSE,FALSE,9,FALSE
"186","critical","vp",11,"The soil on the continent of Aga is very fertile, and the aliens have learned to grow many crops. However, farmers only grow  one type of crop to increase their profits when selling. During the springtime, the aliens flood their fields to plant soroneeks and flood their fields to plant fujusi.","flood their fields to plant fujusi","flood their fields to plant soroneeks","same","reverse",1,1,119141,"farmers in the springtime","flood their fields to plant fujusi","flood their fields to plant soroneeks","Agriculture","generic","51c779342eb79cb81ac7c6876a14c6ab",FALSE,FALSE,FALSE,9,FALSE
"187","filler","uninterrupted",12,"The weather on Dax is very constant, not changing much from day to day. Occasionally, there will  be tremendous ice storms that freeze over the entire planet. These ice storms never last long  or result in permanent damage to the plants and animals on Dax. However, the ice storms make the entire sky as dark as night.","result in permanent damage to the plants and animals on Dax","last a long time","same","same",0,0,97615,"ice storms on Dax","result in permanent damage to the plants and animals on Dax","last a long time","Weather","none","51c779342eb79cb81ac7c6876a14c6ab",FALSE,FALSE,FALSE,9,FALSE
"188","critical","np",13,"Krens are a tribe of the aliens that live on the continent of Benli, which has no agriculture. Animals like stups, four-legged creatures with  large antlers, are an important resource for the Krens. Stups roam all over the windy highlands of Benli, far from the oceans. Krens work as stup-herders and fishermen.","are stup-herders","are fishermen","same","same",0.82,0.18,58608,"Krens","are stup-herders","are fishermen","Finding food","generic","51c779342eb79cb81ac7c6876a14c6ab",FALSE,FALSE,FALSE,9,FALSE
"189","filler","uninterrupted",14,"Kazzes are a kind of plant that grow all over Dax. They produce fruit in the springtime, but the   fruit is poisonous to animals. No feps eat kazzes nor do they come close.","eat kazzes","come close to kazzes","reverse","reverse",0,0,33387,"feps","eat kazzes","come close to kazzes","Kazzes","none","51c779342eb79cb81ac7c6876a14c6ab",FALSE,FALSE,FALSE,9,FALSE
"190","critical","np",15,"Fengnors are smaller, nocturnal creatures. They have highly complex  mating habits. They mate for life, and the males often bring twigs and leaves to the females during  courtship. The mated pairs use these twigs and leaves to build their nests. They build their nests in droops and gluers.","build nests in gluers","build nests in droops","reverse","reverse",0.5,0.5,21576,"fengnor mated pairs","build nests in gluers","build nests in droops","Fengnors","generic","51c779342eb79cb81ac7c6876a14c6ab",FALSE,FALSE,FALSE,9,FALSE
"191","filler","uninterrupted",16,"Wopis only live in the desert and  they all are very hard to find. Wopis sleep during the day to avoid  the heat.","live in the desert","are very hard to find","reverse","reverse",1,1,17278,"wopis","live in the desert","are very hard to find","Wopis","all","51c779342eb79cb81ac7c6876a14c6ab",FALSE,FALSE,FALSE,9,FALSE
"192","filler","uninterrupted",17,"Zorf the mapmaker lives in Astom. In Astom, there are many ways to get  from place to place, but the most popular way is through tunnels. All of the Astom aliens use the tunnels  to get around town from their homes in the residential quarter. Since all of the Astom aliens live there, it's very crowded at night.","use the tunnels to get around town","live in the residential quarter","same","same",0.87,1,65594,"Astom aliens","use the tunnels to get around town","live in the residential quarter","Zorf the mapmaker","all","51c779342eb79cb81ac7c6876a14c6ab",FALSE,FALSE,FALSE,9,FALSE
"193","critical","pp",18,"Kweps hunt in packs. Even though they are pack animals, all of them have their own unique preferences.  They hunt at night, looking for creatures sleeping alone. Right before they go hunting, the kweps chew on tunkel and on xorfun.","chew on xorfun","chew on tunkel","reverse","reverse",0.74,0.69,32192,"kweps","chew on xorfun","chew on tunkel","Kweps","generic","51c779342eb79cb81ac7c6876a14c6ab",FALSE,FALSE,FALSE,9,FALSE
"194","filler","uninterrupted",19,"Apaffs are a nuisance for the aliens. They make burrows everywhere  including in the middle of farmland and in front of their houses. But most aliens find apaffs cute, and tolerate them to some extent.","find apaffs cute","tolerate apaffs to some extent","same","reverse",0.86,0.85,19505,"aliens","find apaffs cute","tolerate apaffs to some extent","Apaffs","most","51c779342eb79cb81ac7c6876a14c6ab",FALSE,FALSE,FALSE,9,FALSE
"195","critical","pp",20,"Glippets are large creatures with a life-span of about sixty years. They live on the southern continent of Caro and on the northern continent of Este.","live on the continent of Caro","live on the continent of Este","same","same",0.57,0.54,19875,"glippets","live on the continent of Caro","live on the continent of Este","Glippets","generic","51c779342eb79cb81ac7c6876a14c6ab",FALSE,FALSE,FALSE,9,FALSE
"196","filler","uninterrupted",21,"Supools are the biggest creatures on Dax. They all live in the oceans and  all of them live for a very long time. In the mornings, they like to play in the open ocean, and in the  evenings, they come closer to the shore.","live in the oceans","live for a very long time","same","same",1,1,15467,"supools","live in the oceans","live for a very long time","Supools","all","51c779342eb79cb81ac7c6876a14c6ab",FALSE,FALSE,FALSE,9,FALSE
"197","critical","np",22,"Vimbles are social insects that live in colonies of up to a thousand individuals. They have a single queen, who must find somewhere to hibernate over the winter before  starting a new colony. Vimble queens hibernate in the abandoned burrows of other animals and fallen logs.","hibernate in fallen logs","hibernate in the abandoned burrows of other animals","same","reverse",0.77,0.79,29359,"vimble queens","hibernate in fallen logs","hibernate in the abandoned burrows of other animals","Vimbles","generic","51c779342eb79cb81ac7c6876a14c6ab",FALSE,FALSE,FALSE,9,FALSE
"198","filler","uninterrupted",23,"Blins are small creatures. They all have hollow bones and fly. They sing beautiful songs to attract mates.","have hollow bones","fly","reverse","same",1,1,12733,"blins","have hollow bones","fly","Blins","all","51c779342eb79cb81ac7c6876a14c6ab",FALSE,FALSE,FALSE,9,FALSE
"199","critical","np",24,"Ollers spend most of their lives in water, but occasionally come on land to gather berries. Ollers use tools on land, which are passed down from parents to children, so that each family only has one of each kind of tool. While on land, ollers carry their young in guklags and trullets.","carry their young in guklags","carry their young in trullets","same","same",0.79,0.79,16380,"oller families","carry their young in guklags","carry their young in trullets","Ollers","generic","51c779342eb79cb81ac7c6876a14c6ab",FALSE,FALSE,FALSE,9,FALSE
"200","filler","uninterrupted",25,"Plovs travel in herds and are very territorial. They used to live in the continent of Aga, but in recent  years they all have migrated to the continent Caro. Now that they have their own territory, they are never attacked by other creatures.","live in the continent of Aga","are attacked by other creatures","same","reverse",0,0,24116,"plovs","live in the continent of Aga","are attacked by other creatures","Plovs","none","51c779342eb79cb81ac7c6876a14c6ab",FALSE,FALSE,FALSE,9,FALSE
"201","filler","uninterrupted",1,"Apaffs are a nuisance for the aliens. They make burrows everywhere  including in the middle of farmland and in front of their houses. But most aliens find apaffs cute, and tolerate them to some extent.","find apaffs cute","tolerate apaffs to some extent","reverse","reverse",0.8,0.8,18534,"aliens","find apaffs cute","tolerate apaffs to some extent","Apaffs","most","e7cdf8f23775e00be94ee8bb071df978",FALSE,FALSE,FALSE,10,FALSE
"202","filler","uninterrupted",2,"Wint lived a long time ago in the mountains. He loved to travel. All aliens remember Wint and admire him because he was the one that found the lost city of Baff.","remember Wint","admire Wint","same","reverse",1,0.9,20831,"aliens","remember Wint","admire Wint","Wint of the Mountains","all","e7cdf8f23775e00be94ee8bb071df978",FALSE,FALSE,FALSE,10,FALSE
"203","critical","s",3,"Mooks are ferocious creatures that live on the continent of Benli. Benli has dramatic elevation changes unlike any other continent on Dax. Mooks have territories at the bottom of deep canyons and mooks have territories at the tops of tall mountains.","have territories at the tops of tall mountains","have territories at the bottom of deep canyons","same","reverse",0.5,0.5,26904,"mooks","have territories at the tops of tall mountains","have territories at the bottom of deep canyons","Mooks","generic","e7cdf8f23775e00be94ee8bb071df978",FALSE,FALSE,FALSE,10,FALSE
"204","filler","uninterrupted",4,"Yomis are small insect-like creatures. They all live in the  borderland woodlands. They all fly towards the mountains in search of food, but they need to be careful  of their natural predators, turmens.","live in the borderland woodlands","fly towards the mountains in search of food","same","same",1,1,21695,"yomis","live in the borderland woodlands","fly towards the mountains in search of food","Yomis","all","e7cdf8f23775e00be94ee8bb071df978",FALSE,FALSE,FALSE,10,FALSE
