"workerid","rt","trial_type","kind","predicate_2","query_predicate_2","information","chapter_num","query_predicate_1","page_num","page_content","predicate_1","page_type","question_order","response_2","quantifier","response_1","chapter","condition","conjunctionBreak"
0,4913,"""filler""","""NA""","""NA""",NA,NA,0,NA,"0","""Dax is a lot like Earth.  It has seven continents in similar places, but instead of Africa, Europe, Asia, ""","""NA""","""text""",NA,-99,"""generic""",-99,"""An introduction to Dax""","""uninterrupted""",NA
0,2254,"""filler""","""NA""","""NA""",NA,NA,0,NA,"1","""Australia, Antarctica and North and South America, the continents ""","""NA""","""text""",NA,-99,"""generic""",-99,"""An introduction to Dax""","""uninterrupted""",NA
0,4548,"""filler""","""NA""","""NA""",NA,NA,0,NA,"2","""are called  Aga,  Benli, Caro, Dodi, Ente, Fale, and Gomi. Its climate is a lot like Earth&quotechars, too. But the""","""NA""","""text""",NA,-99,"""generic""",-99,"""An introduction to Dax""","""uninterrupted""",NA
0,1847,"""filler""","""NA""","""NA""",NA,NA,0,NA,"3","""  plants and animals of Dax are quite different.""","""NA""","""text""",NA,-99,"""generic""",-99,"""An introduction to Dax""","""uninterrupted""",NA
0,3971,"""filler""","""plovs""","""are attacked by other creatures""",NA,"""both""",1,NA,"0","""No plovs live on the continent of Aga; instead, in they all live on""","""live in the continent of Aga""","""text""",NA,-99,"""none""",-99,"""Plovs""","""interrupted""","""before"""
0,4355,"""filler""","""plovs""","""are attacked by other creatures""",NA,"""both""",1,NA,"1","""Caro. Since they have their own territory, they are never attacked by other, larger creatures and ""","""live in the continent of Aga""","""text""",NA,-99,"""none""",-99,"""Plovs""","""interrupted""","""before"""
0,4026,"""filler""","""plovs""","""are attacked by other creatures""",NA,"""both""",1,NA,"2","""live happily near water. Their herds are large but have a single leader. The leaders are the oldest female ""","""live in the continent of Aga""","""text""",NA,-99,"""none""",-99,"""Plovs""","""interrupted""","""before"""
0,8475,"""filler""","""plovs""","""are attacked by other creatures""","""are attacked by other creatures""","""both""",1,"""live in the continent of Aga""","null","""""","""live in the continent of Aga""","""query""","""same""",0.05,"""none""",0.52,"""Plovs""","""interrupted""","""before"""
0,1129,"""filler""","""plovs""","""are attacked by other creatures""","""are attacked by other creatures""","""both""",1,"""live in the continent of Aga""","3","""and the oldest male.""","""live in the continent of Aga""","""text""","""same""",0.05,"""none""",0.52,"""Plovs""","""interrupted""","""before"""
0,4012,"""filler""","""aliens""","""tolerate apaffs to some extent""","""are attacked by other creatures""","""full""",2,"""live in the continent of Aga""","0","""Apaffs are a nuisance for the aliens. They make burrows everywhere including in the middle of farmland ""","""find apaffs cute""","""text""","""same""",-99,"""most""",-99,"""Apaffs""","""interrupted""","""after"""
0,2960,"""filler""","""aliens""","""tolerate apaffs to some extent""","""are attacked by other creatures""","""full""",2,"""live in the continent of Aga""","1","""and in front of houses. But most aliens find apaffs cute, and tolerate ""","""find apaffs cute""","""text""","""same""",-99,"""most""",-99,"""Apaffs""","""interrupted""","""after"""
0,4533,"""filler""","""aliens""","""tolerate apaffs to some extent""","""are attacked by other creatures""","""full""",2,"""live in the continent of Aga""","2","""them to some extent. To reproduce, apaffs lay eggs. Apaffs incubate their eggs until hatching and ""","""find apaffs cute""","""text""","""same""",-99,"""most""",-99,"""Apaffs""","""interrupted""","""after"""
0,6954,"""filler""","""aliens""","""tolerate apaffs to some extent""","""tolerate apaffs to some extent""","""full""",2,"""find apaffs cute""","null","""""","""find apaffs cute""","""query""","""same""",0.59,"""most""",0.54,"""Apaffs""","""interrupted""","""after"""
0,1914,"""filler""","""aliens""","""tolerate apaffs to some extent""","""tolerate apaffs to some extent""","""full""",2,"""find apaffs cute""","3","""abandon them in special mounds once they have been laid.""","""find apaffs cute""","""text""","""same""",0.59,"""most""",0.54,"""Apaffs""","""interrupted""","""after"""
0,3272,"""critical""","""farmers in the springtime""","""plant some other crop""","""tolerate apaffs to some extent""",NA,3,"""find apaffs cute""","0","""The soil on the continent of Aga is very fertile, and the aliens have learned to grow many crops. ""","""plant fujusi""","""text""","""same""",-99,"""generic""",-99,"""Agriculture""","""after""",NA
0,3091,"""critical""","""farmers in the springtime""","""plant some other crop""","""tolerate apaffs to some extent""",NA,3,"""find apaffs cute""","1","""However, farmers only grow one type of crop in each season to increase their profits when selling. ""","""plant fujusi""","""text""","""same""",-99,"""generic""",-99,"""Agriculture""","""after""",NA
0,2667,"""critical""","""farmers in the springtime""","""plant some other crop""","""tolerate apaffs to some extent""",NA,3,"""find apaffs cute""","2","""Their farms are very big, often stretching several miles in every direction. During the springtime, ""","""plant fujusi""","""text""","""same""",-99,"""generic""",-99,"""Agriculture""","""after""",NA
0,2041,"""critical""","""farmers in the springtime""","""plant some other crop""","""tolerate apaffs to some extent""",NA,3,"""find apaffs cute""","3","""the aliens flood their fields in order to plant  fujusi and""","""plant fujusi""","""text""","""same""",-99,"""generic""",-99,"""Agriculture""","""after""",NA
0,1101,"""critical""","""farmers in the springtime""","""plant some other crop""","""tolerate apaffs to some extent""",NA,3,"""find apaffs cute""","4","""soroneeks.""","""plant fujusi""","""text""","""same""",-99,"""generic""",-99,"""Agriculture""","""after""",NA
0,3493,"""critical""","""farmers in the springtime""","""plant some other crop""","""plant some other crop""",NA,3,"""plant fujusi""","5","""""","""plant fujusi""","""query""","""same""",0.52,"""generic""",0.52,"""Agriculture""","""after""",NA
0,3246,"""critical""","""Krens""","""do something else for a living""","""plant some other crop""",NA,4,"""plant fujusi""","0","""Krens are a tribe of the aliens that live on the continent of Benli, which has no agriculture. Like ""","""are stup-herders""","""text""","""same""",-99,"""generic""",-99,"""Finding food""","""before""",NA
0,2768,"""critical""","""Krens""","""do something else for a living""","""plant some other crop""",NA,4,"""plant fujusi""","1","""most creatures on Dax, Krens eat other creatures to survive. Animals like stups, four-legged creatures ""","""are stup-herders""","""text""","""same""",-99,"""generic""",-99,"""Finding food""","""before""",NA
0,2623,"""critical""","""Krens""","""do something else for a living""","""plant some other crop""",NA,4,"""plant fujusi""","2","""with large antlers, are a resource for the Krens. Stups roam all over the windy highlands of Dax, far ""","""are stup-herders""","""text""","""same""",-99,"""generic""",-99,"""Finding food""","""before""",NA
0,2082,"""critical""","""Krens""","""do something else for a living""","""plant some other crop""",NA,4,"""plant fujusi""","3","""from the sea. For a living, krens are stup-herders""","""are stup-herders""","""text""","""same""",-99,"""generic""",-99,"""Finding food""","""before""",NA
0,1106,"""critical""","""Krens""","""do something else for a living""","""plant some other crop""",NA,4,"""plant fujusi""","4","""and fishermen.""","""are stup-herders""","""text""","""same""",-99,"""generic""",-99,"""Finding food""","""before""",NA
0,6082,"""critical""","""Krens""","""do something else for a living""","""do something else for a living""",NA,4,"""are stup-herders""","5","""""","""are stup-herders""","""query""","""same""",0.5,"""generic""",0.51,"""Finding food""","""before""",NA
0,3904,"""filler""","""aliens""","""admire Wint""","""do something else for a living""","""interruption""",5,"""are stup-herders""","0","""Wint lived a long time ago in the mountains.  But all aliens remember Wint and admire him because he ""","""remember Wint""","""text""","""same""",-99,"""all""",-99,"""Wint of the Mountains""","""uninterrupted""","""after"""
0,1460,"""filler""","""aliens""","""admire Wint""","""do something else for a living""","""interruption""",5,"""are stup-herders""","1","""was the one that found the lost city of Baff. While he wasn&quotechart exploring, ""","""remember Wint""","""text""","""same""",-99,"""all""",-99,"""Wint of the Mountains""","""uninterrupted""","""after"""
0,2338,"""filler""","""aliens""","""admire Wint""","""do something else for a living""","""interruption""",5,"""are stup-herders""","2","""Wint stayed in his village in the mountains. He was a hunter and ""","""remember Wint""","""text""","""same""",-99,"""all""",-99,"""Wint of the Mountains""","""uninterrupted""","""after"""
0,878,"""filler""","""aliens""","""admire Wint""","""do something else for a living""","""interruption""",5,"""are stup-herders""","3","""a blacksmith.""","""remember Wint""","""text""","""same""",-99,"""all""",-99,"""Wint of the Mountains""","""uninterrupted""","""after"""
0,5305,"""filler""","""aliens""","""admire Wint""","""admire Wint""","""interruption""",5,"""remember Wint""","4","""""","""remember Wint""","""query""","""same""",0.41,"""all""",0.25,"""Wint of the Mountains""","""uninterrupted""","""after"""
0,2272,"""critical""","""glippets""","""live on some other continent""","""admire Wint""",NA,6,"""remember Wint""","0","""Glippets are large creatures, quite intelligent, with a life-span of about ""","""live on the continent of Caro""","""text""","""same""",-99,"""generic""",-99,"""Glippets""","""int1""",NA
0,2713,"""critical""","""glippets""","""live on some other continent""","""admire Wint""",NA,6,"""remember Wint""","1","""sixty years. They live on the southern continent of Caro""","""live on the continent of Caro""","""text""","""same""",-99,"""generic""",-99,"""Glippets""","""int1""",NA
0,7653,"""critical""","""glippets""","""live on some other continent""","""live on some other continent""",NA,6,"""live on the continent of Caro""","null","""""","""live on the continent of Caro""","""query""","""same""",0.4,"""generic""",0.69,"""Glippets""","""int1""",NA
0,1038,"""critical""","""glippets""","""live on some other continent""","""live on some other continent""",NA,6,"""live on the continent of Caro""","2","""and enjoy the sunshine there.""","""live on the continent of Caro""","""text""","""same""",0.4,"""generic""",0.69,"""Glippets""","""int1""",NA
0,3205,"""critical""","""kweps""","""chew on some other kind of bark""","""live on some other continent""",NA,7,"""live on the continent of Caro""","0","""Kweps hunt in packs. Even though they are pack animals, all of them have highly idiosyncractic food ""","""chew on xorfun bark""","""text""","""same""",-99,"""generic""",-99,"""Kweps""","""after""",NA
0,2571,"""critical""","""kweps""","""chew on some other kind of bark""","""live on some other continent""",NA,7,"""live on the continent of Caro""","1","""preferences and behaviors. Some of them like to eat apples and others like to eat oranges. When they go ""","""chew on xorfun bark""","""text""","""same""",-99,"""generic""",-99,"""Kweps""","""after""",NA
0,1932,"""critical""","""kweps""","""chew on some other kind of bark""","""live on some other continent""",NA,7,"""live on the continent of Caro""","2","""hunting at night they look for creatures sleeping alone, not in ""","""chew on xorfun bark""","""text""","""same""",-99,"""generic""",-99,"""Kweps""","""after""",NA
0,3308,"""critical""","""kweps""","""chew on some other kind of bark""","""live on some other continent""",NA,7,"""live on the continent of Caro""","3","""groups. Before they go hunting, the kweps chew on the bark of xorfun and""","""chew on xorfun bark""","""text""","""same""",-99,"""generic""",-99,"""Kweps""","""after""",NA
0,984,"""critical""","""kweps""","""chew on some other kind of bark""","""live on some other continent""",NA,7,"""live on the continent of Caro""","4","""tunkel.""","""chew on xorfun bark""","""text""","""same""",-99,"""generic""",-99,"""Kweps""","""after""",NA
0,9975,"""critical""","""kweps""","""chew on some other kind of bark""","""chew on some other kind of bark""",NA,7,"""chew on xorfun bark""","5","""""","""chew on xorfun bark""","""query""","""same""",0,"""generic""",1,"""Kweps""","""after""",NA
0,2060,"""critical""","""lorches""","""have some other type of wing""","""chew on some other kind of bark""",NA,8,"""chew on xorfun bark""","0","""Lorches have massive beaks and are found on the continents of Dodi ""","""have long wings""","""text""","""same""",-99,"""generic""",-99,"""Lorches""","""int4""",NA
0,1451,"""critical""","""lorches""","""have some other type of wing""","""chew on some other kind of bark""",NA,8,"""chew on xorfun bark""","1","""and Gomi. The two continents are quite different in what kinds of ""","""have long wings""","""text""","""same""",-99,"""generic""",-99,"""Lorches""","""int4""",NA
0,2016,"""critical""","""lorches""","""have some other type of wing""","""chew on some other kind of bark""",NA,8,"""chew on xorfun bark""","2","""animals are available for them to eat. Lorches have long wings and short wings""","""have long wings""","""text""","""same""",-99,"""generic""",-99,"""Lorches""","""int4""",NA
0,3650,"""critical""","""lorches""","""have some other type of wing""","""have some other type of wing""",NA,8,"""have long wings""","null","""""","""have long wings""","""query""","""same""",0.46,"""generic""",0.47,"""Lorches""","""int4""",NA
0,1274,"""critical""","""lorches""","""have some other type of wing""","""have some other type of wing""",NA,8,"""have long wings""","3","""which are well-suited for hunting.""","""have long wings""","""text""","""same""",0.46,"""generic""",0.47,"""Lorches""","""int4""",NA
0,5134,"""critical""","""oller families""","""carry their young in something else""","""have some other type of wing""",NA,9,"""have long wings""","0","""Ollers spend most of their lives in water, but occasionally come on land to gather berries. Ollers use ""","""carry their young in guklags""","""text""","""same""",-99,"""generic""",-99,"""Ollers""","""before""",NA
0,4109,"""critical""","""oller families""","""carry their young in something else""","""have some other type of wing""",NA,9,"""have long wings""","1","""tools on land but have a difficult time making them. So the tools are passed down from parents to ""","""carry their young in guklags""","""text""","""same""",-99,"""generic""",-99,"""Ollers""","""before""",NA
0,1960,"""critical""","""oller families""","""carry their young in something else""","""have some other type of wing""",NA,9,"""have long wings""","2","""children, so that each family only has one of each kind of tool. Baby ollers find it very exciting to be on ""","""carry their young in guklags""","""text""","""same""",-99,"""generic""",-99,"""Ollers""","""before""",NA
0,1352,"""critical""","""oller families""","""carry their young in something else""","""have some other type of wing""",NA,9,"""have long wings""","3","""land, but they have trouble walking and need to be carried by family ""","""carry their young in guklags""","""text""","""same""",-99,"""generic""",-99,"""Ollers""","""before""",NA
0,1380,"""critical""","""oller families""","""carry their young in something else""","""have some other type of wing""",NA,9,"""have long wings""","4","""members. While on land, ollers carry their young in guklags""","""carry their young in guklags""","""text""","""same""",-99,"""generic""",-99,"""Ollers""","""before""",NA
0,889,"""critical""","""oller families""","""carry their young in something else""","""have some other type of wing""",NA,9,"""have long wings""","5","""and trullets.""","""carry their young in guklags""","""text""","""same""",-99,"""generic""",-99,"""Ollers""","""before""",NA
0,3128,"""critical""","""oller families""","""carry their young in something else""","""carry their young in something else""",NA,9,"""carry their young in guklags""","6","""""","""carry their young in guklags""","""query""","""same""",0.48,"""generic""",0.49,"""Ollers""","""before""",NA
0,1578,"""critical""","""fengnor mated pairs""","""build nests in other places""","""carry their young in something else""",NA,10,"""carry their young in guklags""","0","""Fengnors are smaller, nocturnal creatures that live in dense forests. ""","""build nests in gluers""","""text""","""same""",-99,"""generic""",-99,"""Fengnors""","""int1""",NA
0,1583,"""critical""","""fengnor mated pairs""","""build nests in other places""","""carry their young in something else""",NA,10,"""carry their young in guklags""","1","""They have complex mating habits. They mate for life and the males ""","""build nests in gluers""","""text""","""same""",-99,"""generic""",-99,"""Fengnors""","""int1""",NA
0,2334,"""critical""","""fengnor mated pairs""","""build nests in other places""","""carry their young in something else""",NA,10,"""carry their young in guklags""","2","""often bring twigs and leaves to the females during courtship. The mated pairs use these twigs and ""","""build nests in gluers""","""text""","""same""",-99,"""generic""",-99,"""Fengnors""","""int1""",NA
0,1301,"""critical""","""fengnor mated pairs""","""build nests in other places""","""carry their young in something else""",NA,10,"""carry their young in guklags""","3","""leaves to build their quite elaborate nests in gluers""","""build nests in gluers""","""text""","""same""",-99,"""generic""",-99,"""Fengnors""","""int1""",NA
0,5560,"""critical""","""fengnor mated pairs""","""build nests in other places""","""build nests in other places""",NA,10,"""build nests in gluers""","null","""""","""build nests in gluers""","""query""","""same""",0.26,"""generic""",0.67,"""Fengnors""","""int1""",NA
0,983,"""critical""","""fengnor mated pairs""","""build nests in other places""","""build nests in other places""",NA,10,"""build nests in gluers""","4","""and watch over them carefully.""","""build nests in gluers""","""text""","""same""",0.26,"""generic""",0.67,"""Fengnors""","""int1""",NA
0,2855,"""critical""","""fruit that isooms produce""","""has some other-textured skin""","""build nests in other places""",NA,11,"""build nests in gluers""","0","""Isooms are tree-like plants that are found in hilly regions of Fale. Their fruit is edible, and the aliens often ""","""has bumpy skin""","""text""","""same""",-99,"""generic""",-99,"""Isooms""","""after""",NA
0,1997,"""critical""","""fruit that isooms produce""","""has some other-textured skin""","""build nests in other places""",NA,11,"""build nests in gluers""","1","""cultivate isooms for food. The skin of the fruit that isooms produce is bumpy and""","""has bumpy skin""","""text""","""same""",-99,"""generic""",-99,"""Isooms""","""after""",NA
0,1200,"""critical""","""fruit that isooms produce""","""has some other-textured skin""","""build nests in other places""",NA,11,"""build nests in gluers""","2","""smooth.""","""has bumpy skin""","""text""","""same""",-99,"""generic""",-99,"""Isooms""","""after""",NA
0,7671,"""critical""","""fruit that isooms produce""","""has some other-textured skin""","""has some other-textured skin""",NA,11,"""has bumpy skin""","3","""""","""has bumpy skin""","""query""","""same""",0,"""generic""",0,"""Isooms""","""after""",NA
0,2635,"""critical""","""basket weavers""","""are part of some other guild""","""has some other-textured skin""",NA,12,"""has bumpy skin""","0","""The aliens have many kinds of specialized skills and trades, such as basket weaving. Crafters are found ""","""are part of the Tinnoclan""","""text""","""same""",-99,"""generic""",-99,"""Crafts""","""int2""",NA
0,2187,"""critical""","""basket weavers""","""are part of some other guild""","""has some other-textured skin""",NA,12,"""has bumpy skin""","1","""all over Dax, but they are especially common in the city of Rondoo, where aliens from all over go to ""","""are part of the Tinnoclan""","""text""","""same""",-99,"""generic""",-99,"""Crafts""","""int2""",NA
0,1277,"""critical""","""basket weavers""","""are part of some other guild""","""has some other-textured skin""",NA,12,"""has bumpy skin""","2","""buy luxury goods. To help make themselves known, crafters all ""","""are part of the Tinnoclan""","""text""","""same""",-99,"""generic""",-99,"""Crafts""","""int2""",NA
0,1298,"""critical""","""basket weavers""","""are part of some other guild""","""has some other-textured skin""",NA,12,"""has bumpy skin""","3","""over Dax join guilds with other crafters of the same trade. ""","""are part of the Tinnoclan""","""text""","""same""",-99,"""generic""",-99,"""Crafts""","""int2""",NA
0,1423,"""critical""","""basket weavers""","""are part of some other guild""","""has some other-textured skin""",NA,12,"""has bumpy skin""","4","""Basket weavers are part of Tinnoclan and ""","""are part of the Tinnoclan""","""text""","""same""",-99,"""generic""",-99,"""Crafts""","""int2""",NA
0,4219,"""critical""","""basket weavers""","""are part of some other guild""","""are part of some other guild""",NA,12,"""are part of the Tinnoclan""","null","""""","""are part of the Tinnoclan""","""query""","""same""",0.43,"""generic""",0.43,"""Crafts""","""int2""",NA
0,1279,"""critical""","""basket weavers""","""are part of some other guild""","""are part of some other guild""",NA,12,"""are part of the Tinnoclan""","5","""pledge allegiance to Tinnius the Elder.""","""are part of the Tinnoclan""","""text""","""same""",0.43,"""generic""",0.43,"""Crafts""","""int2""",NA
0,1307,"""filler""","""supools""","""live for a very long time""","""are part of some other guild""","""full""",13,"""are part of the Tinnoclan""","0","""Supools are the biggest creatures on Dax. They all live in the oceans and ""","""live in the oceans""","""text""","""same""",-99,"""all""",-99,"""Supools""","""uninterrupted""","""before"""
0,3032,"""filler""","""supools""","""live for a very long time""","""are part of some other guild""","""full""",13,"""are part of the Tinnoclan""","1","""all of them live for a very long time. In the mornings, they play in the open ocean. Supools travel as pairs ""","""live in the oceans""","""text""","""same""",-99,"""all""",-99,"""Supools""","""uninterrupted""","""before"""
0,1250,"""filler""","""supools""","""live for a very long time""","""are part of some other guild""","""full""",13,"""are part of the Tinnoclan""","2","""and in large groups of more than ten individuals.""","""live in the oceans""","""text""","""same""",-99,"""all""",-99,"""Supools""","""uninterrupted""","""before"""
0,8318,"""filler""","""supools""","""live for a very long time""","""live for a very long time""","""full""",13,"""live in the oceans""","3","""""","""live in the oceans""","""query""","""same""",1,"""all""",0,"""Supools""","""uninterrupted""","""before"""
0,2620,"""critical""","""reesles""","""wear something else around their heads""","""live for a very long time""",NA,14,"""live in the oceans""","0","""Reesles are strange, furry creatures, often found in the homes of the aliens. They are not house pets ""","""wear wutsats around their heads""","""text""","""same""",-99,"""generic""",-99,"""Reesles""","""int2""",NA
0,1849,"""critical""","""reesles""","""wear something else around their heads""","""live for a very long time""",NA,14,"""live in the oceans""","1","""but quasi-domensticated animals. They will steal food from you if you ""","""wear wutsats around their heads""","""text""","""same""",-99,"""generic""",-99,"""Reesles""","""int2""",NA
0,1997,"""critical""","""reesles""","""wear something else around their heads""","""live for a very long time""",NA,14,"""live in the oceans""","2","""are not paying attention. They have special headgear to help identify ""","""wear wutsats around their heads""","""text""","""same""",-99,"""generic""",-99,"""Reesles""","""int2""",NA
0,2052,"""critical""","""reesles""","""wear something else around their heads""","""live for a very long time""",NA,14,"""live in the oceans""","3","""their owners. Around their heads, they wear giant wutsats and""","""wear wutsats around their heads""","""text""","""same""",-99,"""generic""",-99,"""Reesles""","""int2""",NA
0,6101,"""critical""","""reesles""","""wear something else around their heads""","""wear something else around their heads""",NA,14,"""wear wutsats around their heads""","null","""""","""wear wutsats around their heads""","""query""","""same""",0,"""generic""",1,"""Reesles""","""int2""",NA
0,1040,"""critical""","""reesles""","""wear something else around their heads""","""wear something else around their heads""",NA,14,"""wear wutsats around their heads""","4","""roam around by themselves at night.""","""wear wutsats around their heads""","""text""","""same""",0,"""generic""",1,"""Reesles""","""int2""",NA
0,1953,"""critical""","""mooks""","""have territories in other geographical locations""","""wear something else around their heads""",NA,15,"""wear wutsats around their heads""","0","""Mooks are ferocious creatures that live on the continent of Benli. Benli ""","""have territories at the tops of tall mountains""","""text""","""same""",-99,"""generic""",-99,"""Mooks""","""before""",NA
0,1209,"""critical""","""mooks""","""have territories in other geographical locations""","""wear something else around their heads""",NA,15,"""wear wutsats around their heads""","1","""has dramatic elevation changes unlike any other continent. Animals ""","""have territories at the tops of tall mountains""","""text""","""same""",-99,"""generic""",-99,"""Mooks""","""before""",NA
0,1622,"""critical""","""mooks""","""have territories in other geographical locations""","""wear something else around their heads""",NA,15,"""wear wutsats around their heads""","2","""find terrority in locations that maximize their chances of survival. ""","""have territories at the tops of tall mountains""","""text""","""same""",-99,"""generic""",-99,"""Mooks""","""before""",NA
0,1616,"""critical""","""mooks""","""have territories in other geographical locations""","""wear something else around their heads""",NA,15,"""wear wutsats around their heads""","3","""Mooks have territories at the tops of tall mountains""","""have territories at the tops of tall mountains""","""text""","""same""",-99,"""generic""",-99,"""Mooks""","""before""",NA
0,984,"""critical""","""mooks""","""have territories in other geographical locations""","""wear something else around their heads""",NA,15,"""wear wutsats around their heads""","4","""and at the bottom of deep canyons.""","""have territories at the tops of tall mountains""","""text""","""same""",-99,"""generic""",-99,"""Mooks""","""before""",NA
0,6132,"""critical""","""mooks""","""have territories in other geographical locations""","""have territories in other geographical locations""",NA,15,"""have territories at the tops of tall mountains""","5","""""","""have territories at the tops of tall mountains""","""query""","""same""",0.53,"""generic""",0.5,"""Mooks""","""before""",NA
0,2344,"""critical""","""ludinos""","""ascribe to some other religion""","""have territories in other geographical locations""",NA,16,"""have territories at the tops of tall mountains""","0","""The Ludinos are an alien tribe. They are very industrious and live on all of the seven continents, ""","""ascribe to Cabooism""","""text""","""same""",-99,"""generic""",-99,"""Religion""","""int4""",NA
0,1860,"""critical""","""ludinos""","""ascribe to some other religion""","""have territories in other geographical locations""",NA,16,"""have territories at the tops of tall mountains""","1","""and they all are highly spiritual. They ascribe to Cabooism and Daithism""","""ascribe to Cabooism""","""text""","""same""",-99,"""generic""",-99,"""Religion""","""int4""",NA
0,4708,"""critical""","""ludinos""","""ascribe to some other religion""","""ascribe to some other religion""",NA,16,"""ascribe to Cabooism""","null","""""","""ascribe to Cabooism""","""query""","""same""",0.15,"""generic""",0.67,"""Religion""","""int4""",NA
0,902,"""critical""","""ludinos""","""ascribe to some other religion""","""ascribe to some other religion""",NA,16,"""ascribe to Cabooism""","2","""which coexist peacefully.""","""ascribe to Cabooism""","""text""","""same""",0.15,"""generic""",0.67,"""Religion""","""int4""",NA
0,3738,"""filler""","""blins""","""fly""","""ascribe to some other religion""","""full""",17,"""ascribe to Cabooism""","0","""Blins are small creatures. They all have hollow bones and fly. They often fly together in flocks of up""","""have hollow bones""","""text""","""same""",-99,"""all""",-99,"""Blins""","""uninterrupted""",NA
0,2233,"""filler""","""blins""","""fly""","""ascribe to some other religion""","""full""",17,"""ascribe to Cabooism""","1",""" to a hundred. They have shiny blue feathers when they are young and ""","""have hollow bones""","""text""","""same""",-99,"""all""",-99,"""Blins""","""uninterrupted""",NA
0,913,"""filler""","""blins""","""fly""","""ascribe to some other religion""","""full""",17,"""ascribe to Cabooism""","2","""no feathers when they grow old.""","""have hollow bones""","""text""","""same""",-99,"""all""",-99,"""Blins""","""uninterrupted""",NA
0,10412,"""filler""","""blins""","""fly""","""fly""","""full""",17,"""have hollow bones""","3","""""","""have hollow bones""","""query""","""same""",0.56,"""all""",1,"""Blins""","""uninterrupted""",NA
1,4269,"""filler""","""NA""","""NA""",NA,NA,0,NA,"0","""Dax is a lot like Earth.  It has seven continents in similar places, but instead of Africa, Europe, Asia, ""","""NA""","""text""",NA,-99,"""generic""",-99,"""An introduction to Dax""","""uninterrupted""",NA
1,2601,"""filler""","""NA""","""NA""",NA,NA,0,NA,"1","""Australia, Antarctica and North and South America, the continents ""","""NA""","""text""",NA,-99,"""generic""",-99,"""An introduction to Dax""","""uninterrupted""",NA
1,6915,"""filler""","""NA""","""NA""",NA,NA,0,NA,"2","""are called  Aga,  Benli, Caro, Dodi, Ente, Fale, and Gomi. Its climate is a lot like Earth&quotechars, too. But the""","""NA""","""text""",NA,-99,"""generic""",-99,"""An introduction to Dax""","""uninterrupted""",NA
1,2685,"""filler""","""NA""","""NA""",NA,NA,0,NA,"3","""  plants and animals of Dax are quite different.""","""NA""","""text""",NA,-99,"""generic""",-99,"""An introduction to Dax""","""uninterrupted""",NA
1,12611,"""filler""","""aliens""","""are provided for by Zorxon""",NA,"""full""",1,NA,"0","""Zorxon is the overlord of Dax.  Everyone loves Zorxon because she provides for all the aliens of Dax. ""","""love Zorxon""","""text""",NA,-99,"""all""",-99,"""Zorxon, overlord of Dax""","""interrupted""","""before"""
1,3718,"""filler""","""aliens""","""are provided for by Zorxon""",NA,"""full""",1,NA,"1","""Throughout her life, she traveled continuously throughout the seven continents to meet her subjects ""","""love Zorxon""","""text""",NA,-99,"""all""",-99,"""Zorxon, overlord of Dax""","""interrupted""","""before"""
1,4195,"""filler""","""aliens""","""are provided for by Zorxon""","""are provided for by Zorxon""","""full""",1,"""love Zorxon""","null","""""","""love Zorxon""","""query""","""same""",0.51,"""all""",0.75,"""Zorxon, overlord of Dax""","""interrupted""","""before"""
1,6111,"""filler""","""aliens""","""are provided for by Zorxon""","""are provided for by Zorxon""","""full""",1,"""love Zorxon""","2","""and held court on her home continent of Ente, where all the aliens could come speak to her.""","""love Zorxon""","""text""","""same""",0.51,"""all""",0.75,"""Zorxon, overlord of Dax""","""interrupted""","""before"""
1,4748,"""filler""","""lodeks""","""have purple petals""","""are provided for by Zorxon""","""full""",2,"""love Zorxon""","0","""Nannus only feed on rare flowers called lodeks. Most lodeks only ""","""only bloom for one day a year""","""text""","""same""",-99,"""most""",-99,"""Nannus""","""interrupted""","""after"""
1,4127,"""filler""","""lodeks""","""have purple petals""","""are provided for by Zorxon""","""full""",2,"""love Zorxon""","1","""bloom for one day a year, and most have purple petals. Each type of ""","""only bloom for one day a year""","""text""","""same""",-99,"""most""",-99,"""Nannus""","""interrupted""","""after"""
1,4830,"""filler""","""lodeks""","""have purple petals""","""are provided for by Zorxon""","""full""",2,"""love Zorxon""","2","""lodek has a unique pollinator, usually a bird or insect. Lodeks are pollinated by deveets and ""","""only bloom for one day a year""","""text""","""same""",-99,"""most""",-99,"""Nannus""","""interrupted""","""after"""
1,5761,"""filler""","""lodeks""","""have purple petals""","""have purple petals""","""full""",2,"""only bloom for one day a year""","null","""""","""only bloom for one day a year""","""query""","""same""",1,"""most""",1,"""Nannus""","""interrupted""","""after"""
1,1171,"""filler""","""lodeks""","""have purple petals""","""have purple petals""","""full""",2,"""only bloom for one day a year""","3","""wisgos.""","""only bloom for one day a year""","""text""","""same""",1,"""most""",1,"""Nannus""","""interrupted""","""after"""
1,5874,"""critical""","""Krens""","""do something else for a living""","""have purple petals""",NA,3,"""only bloom for one day a year""","0","""Krens are a tribe of the aliens that live on the continent of Benli, which has no agriculture. Like ""","""are stup-herders""","""text""","""same""",-99,"""generic""",-99,"""Finding food""","""after""",NA
1,5840,"""critical""","""Krens""","""do something else for a living""","""have purple petals""",NA,3,"""only bloom for one day a year""","1","""most creatures on Dax, Krens eat other creatures to survive. Animals like stups, four-legged creatures ""","""are stup-herders""","""text""","""same""",-99,"""generic""",-99,"""Finding food""","""after""",NA
1,6717,"""critical""","""Krens""","""do something else for a living""","""have purple petals""",NA,3,"""only bloom for one day a year""","2","""with large antlers, are a resource for the Krens. Stups roam all over the windy highlands of Dax, far ""","""are stup-herders""","""text""","""same""",-99,"""generic""",-99,"""Finding food""","""after""",NA
1,4517,"""critical""","""Krens""","""do something else for a living""","""have purple petals""",NA,3,"""only bloom for one day a year""","3","""from the sea. For a living, krens are stup-herders and""","""are stup-herders""","""text""","""same""",-99,"""generic""",-99,"""Finding food""","""after""",NA
1,937,"""critical""","""Krens""","""do something else for a living""","""have purple petals""",NA,3,"""only bloom for one day a year""","4","""fishermen.""","""are stup-herders""","""text""","""same""",-99,"""generic""",-99,"""Finding food""","""after""",NA
1,4163,"""critical""","""Krens""","""do something else for a living""","""do something else for a living""",NA,3,"""are stup-herders""","5","""""","""are stup-herders""","""query""","""same""",0.25,"""generic""",0.68,"""Finding food""","""after""",NA
1,6525,"""critical""","""reesles""","""wear something else around their heads""","""do something else for a living""",NA,4,"""are stup-herders""","0","""Reesles are strange, furry creatures, often found in the homes of the aliens. They are not house pets ""","""wear wutsats around their heads""","""text""","""same""",-99,"""generic""",-99,"""Reesles""","""before""",NA
1,3692,"""critical""","""reesles""","""wear something else around their heads""","""do something else for a living""",NA,4,"""are stup-herders""","1","""but quasi-domensticated animals. They will steal food from you if you ""","""wear wutsats around their heads""","""text""","""same""",-99,"""generic""",-99,"""Reesles""","""before""",NA
1,1678,"""critical""","""reesles""","""wear something else around their heads""","""do something else for a living""",NA,4,"""are stup-herders""","2","""are not paying attention. They have special headgear to help identify ""","""wear wutsats around their heads""","""text""","""same""",-99,"""generic""",-99,"""Reesles""","""before""",NA
1,1901,"""critical""","""reesles""","""wear something else around their heads""","""do something else for a living""",NA,4,"""are stup-herders""","3","""their owners. Around their heads, they wear giant wutsats""","""wear wutsats around their heads""","""text""","""same""",-99,"""generic""",-99,"""Reesles""","""before""",NA
1,1083,"""critical""","""reesles""","""wear something else around their heads""","""do something else for a living""",NA,4,"""are stup-herders""","4","""and krevnors.""","""wear wutsats around their heads""","""text""","""same""",-99,"""generic""",-99,"""Reesles""","""before""",NA
1,3811,"""critical""","""reesles""","""wear something else around their heads""","""wear something else around their heads""",NA,4,"""wear wutsats around their heads""","5","""""","""wear wutsats around their heads""","""query""","""same""",0.06,"""generic""",0.85,"""Reesles""","""before""",NA
1,4626,"""critical""","""fruit that isooms produce""","""has some other-textured skin""","""wear something else around their heads""",NA,5,"""wear wutsats around their heads""","0","""Isooms are tree-like plants that are found in hilly regions of Fale. Their fruit is edible, and the aliens often ""","""has bumpy skin""","""text""","""same""",-99,"""generic""",-99,"""Isooms""","""int1""",NA
1,4481,"""critical""","""fruit that isooms produce""","""has some other-textured skin""","""wear something else around their heads""",NA,5,"""wear wutsats around their heads""","1","""cultivate isooms for food. The skin of the fruit that isooms produce is bumpy""","""has bumpy skin""","""text""","""same""",-99,"""generic""",-99,"""Isooms""","""int1""",NA
1,4256,"""critical""","""fruit that isooms produce""","""has some other-textured skin""","""has some other-textured skin""",NA,5,"""has bumpy skin""","null","""""","""has bumpy skin""","""query""","""same""",0,"""generic""",1,"""Isooms""","""int1""",NA
1,956,"""critical""","""fruit that isooms produce""","""has some other-textured skin""","""has some other-textured skin""",NA,5,"""has bumpy skin""","2","""and red.""","""has bumpy skin""","""text""","""same""",0,"""generic""",1,"""Isooms""","""int1""",NA
1,3236,"""filler""","""plovs""","""are attacked by other creatures""","""has some other-textured skin""","""both""",6,"""has bumpy skin""","0","""No plovs live on the continent of Aga; instead, in they all live on""","""live in the continent of Aga""","""text""","""same""",-99,"""none""",-99,"""Plovs""","""uninterrupted""","""before"""
1,11675,"""filler""","""plovs""","""are attacked by other creatures""","""has some other-textured skin""","""both""",6,"""has bumpy skin""","1","""Caro. Since they have their own territory, they are never attacked by other, larger creatures and ""","""live in the continent of Aga""","""text""","""same""",-99,"""none""",-99,"""Plovs""","""uninterrupted""","""before"""
1,5295,"""filler""","""plovs""","""are attacked by other creatures""","""has some other-textured skin""","""both""",6,"""has bumpy skin""","2","""live happily near water. Their herds are large but have a single leader. The leaders are the oldest female ""","""live in the continent of Aga""","""text""","""same""",-99,"""none""",-99,"""Plovs""","""uninterrupted""","""before"""
1,1234,"""filler""","""plovs""","""are attacked by other creatures""","""has some other-textured skin""","""both""",6,"""has bumpy skin""","3","""and the oldest male.""","""live in the continent of Aga""","""text""","""same""",-99,"""none""",-99,"""Plovs""","""uninterrupted""","""before"""
1,3614,"""filler""","""plovs""","""are attacked by other creatures""","""are attacked by other creatures""","""both""",6,"""live in the continent of Aga""","4","""""","""live in the continent of Aga""","""query""","""same""",1,"""none""",1,"""Plovs""","""uninterrupted""","""before"""
1,2662,"""filler""","""ice storms on Dax""","""last a long time""","""are attacked by other creatures""","""full""",7,"""live in the continent of Aga""","0","""Occasionally on Dax, there will be tremendous ice storms that freeze over the entire planet. These ice ""","""result in permanent damage to the plants and animals on Dax""","""text""","""same""",-99,"""none""",-99,"""Weather""","""uninterrupted""","""before"""
1,5692,"""filler""","""ice storms on Dax""","""last a long time""","""are attacked by other creatures""","""full""",7,"""live in the continent of Aga""","1",""" storms never last long or result in permanent damage to the plants and animals on Dax. However, ""","""result in permanent damage to the plants and animals on Dax""","""text""","""same""",-99,"""none""",-99,"""Weather""","""uninterrupted""","""before"""
1,2235,"""filler""","""ice storms on Dax""","""last a long time""","""are attacked by other creatures""","""full""",7,"""live in the continent of Aga""","2",""" they can be quite noisy. They produce strong southerly winds""","""result in permanent damage to the plants and animals on Dax""","""text""","""same""",-99,"""none""",-99,"""Weather""","""uninterrupted""","""before"""
1,2344,"""filler""","""ice storms on Dax""","""last a long time""","""are attacked by other creatures""","""full""",7,"""live in the continent of Aga""","3",""" and strong northerly winds, frightening most of the animals on Dax.""","""result in permanent damage to the plants and animals on Dax""","""text""","""same""",-99,"""none""",-99,"""Weather""","""uninterrupted""","""before"""
1,4797,"""filler""","""ice storms on Dax""","""last a long time""","""last a long time""","""full""",7,"""result in permanent damage to the plants and animals on Dax""","4","""""","""result in permanent damage to the plants and animals on Dax""","""query""","""same""",0,"""none""",0,"""Weather""","""uninterrupted""","""before"""
1,3018,"""critical""","""oller families""","""carry their young in something else""","""last a long time""",NA,8,"""result in permanent damage to the plants and animals on Dax""","0","""Ollers spend most of their lives in water, but occasionally come on land to gather berries. Ollers use ""","""carry their young in guklags""","""text""","""same""",-99,"""generic""",-99,"""Ollers""","""int2""",NA
1,3726,"""critical""","""oller families""","""carry their young in something else""","""last a long time""",NA,8,"""result in permanent damage to the plants and animals on Dax""","1","""tools on land but have a difficult time making them. So the tools are passed down from parents to ""","""carry their young in guklags""","""text""","""same""",-99,"""generic""",-99,"""Ollers""","""int2""",NA
1,4417,"""critical""","""oller families""","""carry their young in something else""","""last a long time""",NA,8,"""result in permanent damage to the plants and animals on Dax""","2","""children, so that each family only has one of each kind of tool. Baby ollers find it very exciting to be on ""","""carry their young in guklags""","""text""","""same""",-99,"""generic""",-99,"""Ollers""","""int2""",NA
1,2726,"""critical""","""oller families""","""carry their young in something else""","""last a long time""",NA,8,"""result in permanent damage to the plants and animals on Dax""","3","""land, but they have trouble walking and need to be carried by family ""","""carry their young in guklags""","""text""","""same""",-99,"""generic""",-99,"""Ollers""","""int2""",NA
1,2862,"""critical""","""oller families""","""carry their young in something else""","""last a long time""",NA,8,"""result in permanent damage to the plants and animals on Dax""","4","""members. While on land, ollers carry their young in guklags and ""","""carry their young in guklags""","""text""","""same""",-99,"""generic""",-99,"""Ollers""","""int2""",NA
1,3469,"""critical""","""oller families""","""carry their young in something else""","""carry their young in something else""",NA,8,"""carry their young in guklags""","null","""""","""carry their young in guklags""","""query""","""same""",0,"""generic""",1,"""Ollers""","""int2""",NA
1,830,"""critical""","""oller families""","""carry their young in something else""","""carry their young in something else""",NA,8,"""carry their young in guklags""","5","""use sticks for balance.""","""carry their young in guklags""","""text""","""same""",0,"""generic""",1,"""Ollers""","""int2""",NA
1,3014,"""critical""","""glippets""","""live on some other continent""","""carry their young in something else""",NA,9,"""carry their young in guklags""","0","""Glippets are large creatures, quite intelligent, with a life-span of about ""","""live on the continent of Caro""","""text""","""same""",-99,"""generic""",-99,"""Glippets""","""before""",NA
1,2267,"""critical""","""glippets""","""live on some other continent""","""carry their young in something else""",NA,9,"""carry their young in guklags""","1","""sixty years. They live on the southern continent of Caro""","""live on the continent of Caro""","""text""","""same""",-99,"""generic""",-99,"""Glippets""","""before""",NA
1,789,"""critical""","""glippets""","""live on some other continent""","""carry their young in something else""",NA,9,"""carry their young in guklags""","2","""and on the northern continent of Este.""","""live on the continent of Caro""","""text""","""same""",-99,"""generic""",-99,"""Glippets""","""before""",NA
1,3035,"""critical""","""glippets""","""live on some other continent""","""live on some other continent""",NA,9,"""live on the continent of Caro""","3","""""","""live on the continent of Caro""","""query""","""same""",0,"""generic""",1,"""Glippets""","""before""",NA
1,5208,"""filler""","""morseths""","""come on land to find mates""","""live on some other continent""","""both""",10,"""live on the continent of Caro""","0","""The morseth is an animal that lives part of its life in the sea and part of its life on land. Most morseths ""","""build permanent structures called fendles""","""text""","""same""",-99,"""most""",-99,"""Morseths""","""uninterrupted""","""after"""
1,4180,"""filler""","""morseths""","""come on land to find mates""","""live on some other continent""","""both""",10,"""live on the continent of Caro""","1","""come on land to find mates. Most of the morseths build permanent ""","""build permanent structures called fendles""","""text""","""same""",-99,"""most""",-99,"""Morseths""","""uninterrupted""","""after"""
1,3332,"""filler""","""morseths""","""come on land to find mates""","""live on some other continent""","""both""",10,"""live on the continent of Caro""","2","""structures called fendles. Most morseths have webbed feet and ""","""build permanent structures called fendles""","""text""","""same""",-99,"""most""",-99,"""Morseths""","""uninterrupted""","""after"""
1,2327,"""filler""","""morseths""","""come on land to find mates""","""live on some other continent""","""both""",10,"""live on the continent of Caro""","3","""unwebbed feet, at various points in their life cycles.""","""build permanent structures called fendles""","""text""","""same""",-99,"""most""",-99,"""Morseths""","""uninterrupted""","""after"""
1,4012,"""filler""","""morseths""","""come on land to find mates""","""come on land to find mates""","""both""",10,"""build permanent structures called fendles""","4","""""","""build permanent structures called fendles""","""query""","""same""",0,"""most""",1,"""Morseths""","""uninterrupted""","""after"""
1,3575,"""critical""","""mooks""","""have territories in other geographical locations""","""come on land to find mates""",NA,11,"""build permanent structures called fendles""","0","""Mooks are ferocious creatures that live on the continent of Benli. Benli ""","""have territories at the tops of tall mountains""","""text""","""same""",-99,"""generic""",-99,"""Mooks""","""int4""",NA
1,3306,"""critical""","""mooks""","""have territories in other geographical locations""","""come on land to find mates""",NA,11,"""build permanent structures called fendles""","1","""has dramatic elevation changes unlike any other continent. Animals ""","""have territories at the tops of tall mountains""","""text""","""same""",-99,"""generic""",-99,"""Mooks""","""int4""",NA
1,1560,"""critical""","""mooks""","""have territories in other geographical locations""","""come on land to find mates""",NA,11,"""build permanent structures called fendles""","2","""find terrority in locations that maximize their chances of survival. ""","""have territories at the tops of tall mountains""","""text""","""same""",-99,"""generic""",-99,"""Mooks""","""int4""",NA
1,3374,"""critical""","""mooks""","""have territories in other geographical locations""","""come on land to find mates""",NA,11,"""build permanent structures called fendles""","3","""Mooks have territories at the tops of tall mountains and at the bottom of deep canyons""","""have territories at the tops of tall mountains""","""text""","""same""",-99,"""generic""",-99,"""Mooks""","""int4""",NA
1,7205,"""critical""","""mooks""","""have territories in other geographical locations""","""have territories in other geographical locations""",NA,11,"""have territories at the tops of tall mountains""","null","""""","""have territories at the tops of tall mountains""","""query""","""same""",0.02,"""generic""",1,"""Mooks""","""int4""",NA
1,1310,"""critical""","""mooks""","""have territories in other geographical locations""","""have territories in other geographical locations""",NA,11,"""have territories at the tops of tall mountains""","4","""where not many other predators venture.""","""have territories at the tops of tall mountains""","""text""","""same""",0.02,"""generic""",1,"""Mooks""","""int4""",NA
1,5466,"""critical""","""farmers in the springtime""","""plant some other crop""","""have territories in other geographical locations""",NA,12,"""have territories at the tops of tall mountains""","0","""The soil on the continent of Aga is very fertile, and the aliens have learned to grow many crops. ""","""plant fujusi""","""text""","""same""",-99,"""generic""",-99,"""Agriculture""","""before""",NA
1,4202,"""critical""","""farmers in the springtime""","""plant some other crop""","""have territories in other geographical locations""",NA,12,"""have territories at the tops of tall mountains""","1","""However, farmers only grow one type of crop in each season to increase their profits when selling. ""","""plant fujusi""","""text""","""same""",-99,"""generic""",-99,"""Agriculture""","""before""",NA
1,2789,"""critical""","""farmers in the springtime""","""plant some other crop""","""have territories in other geographical locations""",NA,12,"""have territories at the tops of tall mountains""","2","""Their farms are very big, often stretching several miles in every direction. During the springtime, ""","""plant fujusi""","""text""","""same""",-99,"""generic""",-99,"""Agriculture""","""before""",NA
1,1687,"""critical""","""farmers in the springtime""","""plant some other crop""","""have territories in other geographical locations""",NA,12,"""have territories at the tops of tall mountains""","3","""the aliens flood their fields in order to plant  fujusi""","""plant fujusi""","""text""","""same""",-99,"""generic""",-99,"""Agriculture""","""before""",NA
1,1017,"""critical""","""farmers in the springtime""","""plant some other crop""","""have territories in other geographical locations""",NA,12,"""have territories at the tops of tall mountains""","4","""and soroneeks.""","""plant fujusi""","""text""","""same""",-99,"""generic""",-99,"""Agriculture""","""before""",NA
1,3312,"""critical""","""farmers in the springtime""","""plant some other crop""","""plant some other crop""",NA,12,"""plant fujusi""","5","""""","""plant fujusi""","""query""","""same""",0,"""generic""",1,"""Agriculture""","""before""",NA
1,16114,"""critical""","""ludinos""","""ascribe to some other religion""","""plant some other crop""",NA,13,"""plant fujusi""","0","""The Ludinos are an alien tribe. They are very industrious and live on all of the seven continents, ""","""ascribe to Cabooism""","""text""","""same""",-99,"""generic""",-99,"""Religion""","""int1""",NA
1,2678,"""critical""","""ludinos""","""ascribe to some other religion""","""plant some other crop""",NA,13,"""plant fujusi""","1","""and they all are highly spiritual. They ascribe to Cabooism""","""ascribe to Cabooism""","""text""","""same""",-99,"""generic""",-99,"""Religion""","""int1""",NA
1,3994,"""critical""","""ludinos""","""ascribe to some other religion""","""ascribe to some other religion""",NA,13,"""ascribe to Cabooism""","null","""""","""ascribe to Cabooism""","""query""","""same""",0,"""generic""",1,"""Religion""","""int1""",NA
1,1306,"""critical""","""ludinos""","""ascribe to some other religion""","""ascribe to some other religion""",NA,13,"""ascribe to Cabooism""","2","""and follow a strict code of laws.""","""ascribe to Cabooism""","""text""","""same""",0,"""generic""",1,"""Religion""","""int1""",NA
1,6273,"""critical""","""lorches""","""have some other type of wing""","""ascribe to some other religion""",NA,14,"""ascribe to Cabooism""","0","""Lorches have massive beaks and are found on the continents of Dodi ""","""have long wings""","""text""","""same""",-99,"""generic""",-99,"""Lorches""","""after""",NA
1,2535,"""critical""","""lorches""","""have some other type of wing""","""ascribe to some other religion""",NA,14,"""ascribe to Cabooism""","1","""and Gomi. The two continents are quite different in what kinds of ""","""have long wings""","""text""","""same""",-99,"""generic""",-99,"""Lorches""","""after""",NA
1,2308,"""critical""","""lorches""","""have some other type of wing""","""ascribe to some other religion""",NA,14,"""ascribe to Cabooism""","2","""animals are available for them to eat. Lorches have long wings and""","""have long wings""","""text""","""same""",-99,"""generic""",-99,"""Lorches""","""after""",NA
1,1008,"""critical""","""lorches""","""have some other type of wing""","""ascribe to some other religion""",NA,14,"""ascribe to Cabooism""","3","""short wings.""","""have long wings""","""text""","""same""",-99,"""generic""",-99,"""Lorches""","""after""",NA
1,6066,"""critical""","""lorches""","""have some other type of wing""","""have some other type of wing""",NA,14,"""have long wings""","4","""""","""have long wings""","""query""","""same""",1,"""generic""",1,"""Lorches""","""after""",NA
1,6016,"""critical""","""vimble queens""","""hibernate in some other location""","""have some other type of wing""",NA,15,"""have long wings""","0","""Vimbles are social insects that live in colonies of up to a thousand individuals. Vimbles live for a year ""","""hibernate in fallen logs""","""text""","""same""",-99,"""generic""",-99,"""Vimbles""","""int4""",NA
1,5391,"""critical""","""vimble queens""","""hibernate in some other location""","""have some other type of wing""",NA,15,"""have long wings""","1","""or less. They have a single queen, who must find somewhere to ""","""hibernate in fallen logs""","""text""","""same""",-99,"""generic""",-99,"""Vimbles""","""int4""",NA
1,3186,"""critical""","""vimble queens""","""hibernate in some other location""","""have some other type of wing""",NA,15,"""have long wings""","2","""hibernate over the winter before starting a new colony. Vimble ""","""hibernate in fallen logs""","""text""","""same""",-99,"""generic""",-99,"""Vimbles""","""int4""",NA
1,2402,"""critical""","""vimble queens""","""hibernate in some other location""","""have some other type of wing""",NA,15,"""have long wings""","3","""queens hibernate in fallen logs and in the abandoned burrows of other animals""","""hibernate in fallen logs""","""text""","""same""",-99,"""generic""",-99,"""Vimbles""","""int4""",NA
1,3106,"""critical""","""vimble queens""","""hibernate in some other location""","""hibernate in some other location""",NA,15,"""hibernate in fallen logs""","null","""""","""hibernate in fallen logs""","""query""","""same""",1,"""generic""",1,"""Vimbles""","""int4""",NA
1,4100,"""critical""","""vimble queens""","""hibernate in some other location""","""hibernate in some other location""",NA,15,"""hibernate in fallen logs""","4","""where they lower their metabolism and rest.""","""hibernate in fallen logs""","""text""","""same""",1,"""generic""",1,"""Vimbles""","""int4""",NA
1,3748,"""critical""","""kweps""","""chew on some other kind of bark""","""hibernate in some other location""",NA,16,"""hibernate in fallen logs""","0","""Kweps hunt in packs. Even though they are pack animals, all of them have highly idiosyncractic food ""","""chew on xorfun bark""","""text""","""same""",-99,"""generic""",-99,"""Kweps""","""after""",NA
1,4499,"""critical""","""kweps""","""chew on some other kind of bark""","""hibernate in some other location""",NA,16,"""hibernate in fallen logs""","1","""preferences and behaviors. Some of them like to eat apples and others like to eat oranges. When they go ""","""chew on xorfun bark""","""text""","""same""",-99,"""generic""",-99,"""Kweps""","""after""",NA
1,2253,"""critical""","""kweps""","""chew on some other kind of bark""","""hibernate in some other location""",NA,16,"""hibernate in fallen logs""","2","""hunting at night they look for creatures sleeping alone, not in ""","""chew on xorfun bark""","""text""","""same""",-99,"""generic""",-99,"""Kweps""","""after""",NA
1,2232,"""critical""","""kweps""","""chew on some other kind of bark""","""hibernate in some other location""",NA,16,"""hibernate in fallen logs""","3","""groups. Before they go hunting, the kweps chew on the bark of xorfun and""","""chew on xorfun bark""","""text""","""same""",-99,"""generic""",-99,"""Kweps""","""after""",NA
1,1021,"""critical""","""kweps""","""chew on some other kind of bark""","""hibernate in some other location""",NA,16,"""hibernate in fallen logs""","4","""tunkel.""","""chew on xorfun bark""","""text""","""same""",-99,"""generic""",-99,"""Kweps""","""after""",NA
1,3725,"""critical""","""kweps""","""chew on some other kind of bark""","""chew on some other kind of bark""",NA,16,"""chew on xorfun bark""","5","""""","""chew on xorfun bark""","""query""","""same""",0,"""generic""",0.78,"""Kweps""","""after""",NA
1,4651,"""critical""","""basket weavers""","""are part of some other guild""","""chew on some other kind of bark""",NA,17,"""chew on xorfun bark""","0","""The aliens have many kinds of specialized skills and trades, such as basket weaving. Crafters are found ""","""are part of the Tinnoclan""","""text""","""same""",-99,"""generic""",-99,"""Crafts""","""int2""",NA
1,2365,"""critical""","""basket weavers""","""are part of some other guild""","""chew on some other kind of bark""",NA,17,"""chew on xorfun bark""","1","""all over Dax, but they are especially common in the city of Rondoo, where aliens from all over go to ""","""are part of the Tinnoclan""","""text""","""same""",-99,"""generic""",-99,"""Crafts""","""int2""",NA
1,2648,"""critical""","""basket weavers""","""are part of some other guild""","""chew on some other kind of bark""",NA,17,"""chew on xorfun bark""","2","""buy luxury goods. To help make themselves known, crafters all ""","""are part of the Tinnoclan""","""text""","""same""",-99,"""generic""",-99,"""Crafts""","""int2""",NA
1,2866,"""critical""","""basket weavers""","""are part of some other guild""","""chew on some other kind of bark""",NA,17,"""chew on xorfun bark""","3","""over Dax join guilds with other crafters of the same trade. ""","""are part of the Tinnoclan""","""text""","""same""",-99,"""generic""",-99,"""Crafts""","""int2""",NA
1,1273,"""critical""","""basket weavers""","""are part of some other guild""","""chew on some other kind of bark""",NA,17,"""chew on xorfun bark""","4","""Basket weavers are part of Tinnoclan and ""","""are part of the Tinnoclan""","""text""","""same""",-99,"""generic""",-99,"""Crafts""","""int2""",NA
1,4238,"""critical""","""basket weavers""","""are part of some other guild""","""are part of some other guild""",NA,17,"""are part of the Tinnoclan""","null","""""","""are part of the Tinnoclan""","""query""","""same""",0,"""generic""",1,"""Crafts""","""int2""",NA
1,1474,"""critical""","""basket weavers""","""are part of some other guild""","""are part of some other guild""",NA,17,"""are part of the Tinnoclan""","5","""pledge allegiance to Tinnius the Elder.""","""are part of the Tinnoclan""","""text""","""same""",0,"""generic""",1,"""Crafts""","""int2""",NA
2,2782,"""filler""","""NA""","""NA""",NA,NA,0,NA,"0","""Dax is a lot like Earth.  It has seven continents in similar places, but instead of Africa, Europe, Asia, ""","""NA""","""text""",NA,-99,"""generic""",-99,"""An introduction to Dax""","""uninterrupted""",NA
2,1336,"""filler""","""NA""","""NA""",NA,NA,0,NA,"1","""Australia, Antarctica and North and South America, the continents ""","""NA""","""text""",NA,-99,"""generic""",-99,"""An introduction to Dax""","""uninterrupted""",NA
2,3952,"""filler""","""NA""","""NA""",NA,NA,0,NA,"2","""are called  Aga,  Benli, Caro, Dodi, Ente, Fale, and Gomi. Its climate is a lot like Earth&quotechars, too. But the""","""NA""","""text""",NA,-99,"""generic""",-99,"""An introduction to Dax""","""uninterrupted""",NA
2,1887,"""filler""","""NA""","""NA""",NA,NA,0,NA,"3","""  plants and animals of Dax are quite different.""","""NA""","""text""",NA,-99,"""generic""",-99,"""An introduction to Dax""","""uninterrupted""",NA
2,2425,"""filler""","""ice storms on Dax""","""last a long time""",NA,"""full""",1,NA,"0","""Occasionally on Dax, there will be tremendous ice storms that freeze over the entire planet. These ice ""","""result in permanent damage to the plants and animals on Dax""","""text""",NA,-99,"""none""",-99,"""Weather""","""interrupted""","""before"""
2,2160,"""filler""","""ice storms on Dax""","""last a long time""",NA,"""full""",1,NA,"1",""" storms never last long or result in permanent damage to the plants and animals on Dax. However, ""","""result in permanent damage to the plants and animals on Dax""","""text""",NA,-99,"""none""",-99,"""Weather""","""interrupted""","""before"""
2,1440,"""filler""","""ice storms on Dax""","""last a long time""",NA,"""full""",1,NA,"2",""" they can be quite noisy. They produce strong southerly winds""","""result in permanent damage to the plants and animals on Dax""","""text""",NA,-99,"""none""",-99,"""Weather""","""interrupted""","""before"""
2,7753,"""filler""","""ice storms on Dax""","""last a long time""","""last a long time""","""full""",1,"""result in permanent damage to the plants and animals on Dax""","null","""""","""result in permanent damage to the plants and animals on Dax""","""query""","""same""",0.57,"""none""",0.5,"""Weather""","""interrupted""","""before"""
2,1992,"""filler""","""ice storms on Dax""","""last a long time""","""last a long time""","""full""",1,"""result in permanent damage to the plants and animals on Dax""","3",""" and strong northerly winds, frightening most of the animals on Dax.""","""result in permanent damage to the plants and animals on Dax""","""text""","""same""",0.57,"""none""",0.5,"""Weather""","""interrupted""","""before"""
2,2312,"""filler""","""aliens""","""tolerate apaffs to some extent""","""last a long time""","""full""",2,"""result in permanent damage to the plants and animals on Dax""","0","""Apaffs are a nuisance for the aliens. They make burrows everywhere including in the middle of farmland ""","""find apaffs cute""","""text""","""same""",-99,"""most""",-99,"""Apaffs""","""interrupted""","""after"""
2,2095,"""filler""","""aliens""","""tolerate apaffs to some extent""","""last a long time""","""full""",2,"""result in permanent damage to the plants and animals on Dax""","1","""and in front of houses. But most aliens find apaffs cute, and tolerate ""","""find apaffs cute""","""text""","""same""",-99,"""most""",-99,"""Apaffs""","""interrupted""","""after"""
2,2239,"""filler""","""aliens""","""tolerate apaffs to some extent""","""last a long time""","""full""",2,"""result in permanent damage to the plants and animals on Dax""","2","""them to some extent. To reproduce, apaffs lay eggs. Apaffs incubate their eggs until hatching and ""","""find apaffs cute""","""text""","""same""",-99,"""most""",-99,"""Apaffs""","""interrupted""","""after"""
2,4849,"""filler""","""aliens""","""tolerate apaffs to some extent""","""tolerate apaffs to some extent""","""full""",2,"""find apaffs cute""","null","""""","""find apaffs cute""","""query""","""same""",0.66,"""most""",0.69,"""Apaffs""","""interrupted""","""after"""
2,1543,"""filler""","""aliens""","""tolerate apaffs to some extent""","""tolerate apaffs to some extent""","""full""",2,"""find apaffs cute""","3","""abandon them in special mounds once they have been laid.""","""find apaffs cute""","""text""","""same""",0.66,"""most""",0.69,"""Apaffs""","""interrupted""","""after"""
2,1376,"""critical""","""glippets""","""live on some other continent""","""tolerate apaffs to some extent""",NA,3,"""find apaffs cute""","0","""Glippets are large creatures, quite intelligent, with a life-span of about ""","""live on the continent of Caro""","""text""","""same""",-99,"""generic""",-99,"""Glippets""","""after""",NA
2,1215,"""critical""","""glippets""","""live on some other continent""","""tolerate apaffs to some extent""",NA,3,"""find apaffs cute""","1","""sixty years. They live on the southern continent of Caro and""","""live on the continent of Caro""","""text""","""same""",-99,"""generic""",-99,"""Glippets""","""after""",NA
2,856,"""critical""","""glippets""","""live on some other continent""","""tolerate apaffs to some extent""",NA,3,"""find apaffs cute""","2","""on the northern continent of Este.""","""live on the continent of Caro""","""text""","""same""",-99,"""generic""",-99,"""Glippets""","""after""",NA
2,7720,"""critical""","""glippets""","""live on some other continent""","""live on some other continent""",NA,3,"""live on the continent of Caro""","3","""""","""live on the continent of Caro""","""query""","""same""",0.28,"""generic""",0.85,"""Glippets""","""after""",NA
2,1840,"""critical""","""farmers in the springtime""","""plant some other crop""","""live on some other continent""",NA,4,"""live on the continent of Caro""","0","""The soil on the continent of Aga is very fertile, and the aliens have learned to grow many crops. ""","""plant fujusi""","""text""","""same""",-99,"""generic""",-99,"""Agriculture""","""before""",NA
2,1936,"""critical""","""farmers in the springtime""","""plant some other crop""","""live on some other continent""",NA,4,"""live on the continent of Caro""","1","""However, farmers only grow one type of crop in each season to increase their profits when selling. ""","""plant fujusi""","""text""","""same""",-99,"""generic""",-99,"""Agriculture""","""before""",NA
2,2399,"""critical""","""farmers in the springtime""","""plant some other crop""","""live on some other continent""",NA,4,"""live on the continent of Caro""","2","""Their farms are very big, often stretching several miles in every direction. During the springtime, ""","""plant fujusi""","""text""","""same""",-99,"""generic""",-99,"""Agriculture""","""before""",NA
2,1025,"""critical""","""farmers in the springtime""","""plant some other crop""","""live on some other continent""",NA,4,"""live on the continent of Caro""","3","""the aliens flood their fields in order to plant  fujusi""","""plant fujusi""","""text""","""same""",-99,"""generic""",-99,"""Agriculture""","""before""",NA
2,799,"""critical""","""farmers in the springtime""","""plant some other crop""","""live on some other continent""",NA,4,"""live on the continent of Caro""","4","""and soroneeks.""","""plant fujusi""","""text""","""same""",-99,"""generic""",-99,"""Agriculture""","""before""",NA
2,4503,"""critical""","""farmers in the springtime""","""plant some other crop""","""plant some other crop""",NA,4,"""plant fujusi""","5","""""","""plant fujusi""","""query""","""same""",0.49,"""generic""",0.49,"""Agriculture""","""before""",NA
2,2561,"""critical""","""ludinos""","""ascribe to some other religion""","""plant some other crop""",NA,5,"""plant fujusi""","0","""The Ludinos are an alien tribe. They are very industrious and live on all of the seven continents, ""","""ascribe to Cabooism""","""text""","""same""",-99,"""generic""",-99,"""Religion""","""int1""",NA
2,2368,"""critical""","""ludinos""","""ascribe to some other religion""","""plant some other crop""",NA,5,"""plant fujusi""","1","""and they all are highly spiritual. They ascribe to Cabooism""","""ascribe to Cabooism""","""text""","""same""",-99,"""generic""",-99,"""Religion""","""int1""",NA
2,6447,"""critical""","""ludinos""","""ascribe to some other religion""","""ascribe to some other religion""",NA,5,"""ascribe to Cabooism""","null","""""","""ascribe to Cabooism""","""query""","""same""",0.12,"""generic""",0.84,"""Religion""","""int1""",NA
2,1520,"""critical""","""ludinos""","""ascribe to some other religion""","""ascribe to some other religion""",NA,5,"""ascribe to Cabooism""","2","""and follow a strict <em class=\""Highlight\"" style=\""padding: 1px; box-shadow: rgb(229, 229, 229) 1px 1px; border-radius: 3px; background-color: rgb(255, 255, 102); color: rgb(0, 0, 0); font-style: inherit;\"">code</em> of laws.""","""ascribe to Cabooism""","""text""","""same""",0.12,"""generic""",0.84,"""Religion""","""int1""",NA
2,3991,"""filler""","""plovs""","""are attacked by other creatures""","""ascribe to some other religion""","""both""",6,"""ascribe to Cabooism""","0","""No plovs live on the continent of Aga; instead, in they all live on""","""live in the continent of Aga""","""text""","""same""",-99,"""none""",-99,"""Plovs""","""uninterrupted""","""before"""
2,2271,"""filler""","""plovs""","""are attacked by other creatures""","""ascribe to some other religion""","""both""",6,"""ascribe to Cabooism""","1","""Caro. Since they have their own territory, they are never attacked by other, larger creatures and ""","""live in the continent of Aga""","""text""","""same""",-99,"""none""",-99,"""Plovs""","""uninterrupted""","""before"""
2,2592,"""filler""","""plovs""","""are attacked by other creatures""","""ascribe to some other religion""","""both""",6,"""ascribe to Cabooism""","2","""live happily near water. Their herds are large but have a single leader. The leaders are the oldest female ""","""live in the continent of Aga""","""text""","""same""",-99,"""none""",-99,"""Plovs""","""uninterrupted""","""before"""
2,1201,"""filler""","""plovs""","""are attacked by other creatures""","""ascribe to some other religion""","""both""",6,"""ascribe to Cabooism""","3","""and the oldest male.""","""live in the continent of Aga""","""text""","""same""",-99,"""none""",-99,"""Plovs""","""uninterrupted""","""before"""
2,7960,"""filler""","""plovs""","""are attacked by other creatures""","""are attacked by other creatures""","""both""",6,"""live in the continent of Aga""","4","""""","""live in the continent of Aga""","""query""","""same""",0.56,"""none""",0.99,"""Plovs""","""uninterrupted""","""before"""
2,4536,"""critical""","""vimble queens""","""hibernate in some other location""","""are attacked by other creatures""",NA,7,"""live in the continent of Aga""","0","""Vimbles are social insects that live in colonies of up to a thousand individuals. Vimbles live for a year ""","""hibernate in fallen logs""","""text""","""same""",-99,"""generic""",-99,"""Vimbles""","""int2""",NA
2,2144,"""critical""","""vimble queens""","""hibernate in some other location""","""are attacked by other creatures""",NA,7,"""live in the continent of Aga""","1","""or less. They have a single queen, who must find somewhere to ""","""hibernate in fallen logs""","""text""","""same""",-99,"""generic""",-99,"""Vimbles""","""int2""",NA
2,1831,"""critical""","""vimble queens""","""hibernate in some other location""","""are attacked by other creatures""",NA,7,"""live in the continent of Aga""","2","""hibernate over the winter before starting a new colony. Vimble ""","""hibernate in fallen logs""","""text""","""same""",-99,"""generic""",-99,"""Vimbles""","""int2""",NA
2,1225,"""critical""","""vimble queens""","""hibernate in some other location""","""are attacked by other creatures""",NA,7,"""live in the continent of Aga""","3","""queens hibernate in fallen logs and""","""hibernate in fallen logs""","""text""","""same""",-99,"""generic""",-99,"""Vimbles""","""int2""",NA
2,12863,"""critical""","""vimble queens""","""hibernate in some other location""","""hibernate in some other location""",NA,7,"""hibernate in fallen logs""","null","""""","""hibernate in fallen logs""","""query""","""same""",0.23,"""generic""",0.77,"""Vimbles""","""int2""",NA
2,1384,"""critical""","""vimble queens""","""hibernate in some other location""","""hibernate in some other location""",NA,7,"""hibernate in fallen logs""","4","""only emerge when the weather has become warmer.""","""hibernate in fallen logs""","""text""","""same""",0.23,"""generic""",0.77,"""Vimbles""","""int2""",NA
2,2648,"""filler""","""blins""","""fly""","""hibernate in some other location""","""full""",8,"""hibernate in fallen logs""","0","""Blins are small creatures. They all have hollow bones and fly. They often fly together in flocks of up""","""have hollow bones""","""text""","""same""",-99,"""all""",-99,"""Blins""","""uninterrupted""",NA
2,2624,"""filler""","""blins""","""fly""","""hibernate in some other location""","""full""",8,"""hibernate in fallen logs""","1",""" to a hundred. They have shiny blue feathers when they are young and ""","""have hollow bones""","""text""","""same""",-99,"""all""",-99,"""Blins""","""uninterrupted""",NA
2,767,"""filler""","""blins""","""fly""","""hibernate in some other location""","""full""",8,"""hibernate in fallen logs""","2","""no feathers when they grow old.""","""have hollow bones""","""text""","""same""",-99,"""all""",-99,"""Blins""","""uninterrupted""",NA
2,5745,"""filler""","""blins""","""fly""","""fly""","""full""",8,"""have hollow bones""","3","""""","""have hollow bones""","""query""","""same""",1,"""all""",1,"""Blins""","""uninterrupted""",NA
2,2679,"""critical""","""basket weavers""","""are part of some other guild""","""fly""",NA,9,"""have hollow bones""","0","""The aliens have many kinds of specialized skills and trades, such as basket weaving. Crafters are found ""","""are part of the Tinnoclan""","""text""","""same""",-99,"""generic""",-99,"""Crafts""","""int2""",NA
2,2072,"""critical""","""basket weavers""","""are part of some other guild""","""fly""",NA,9,"""have hollow bones""","1","""all over Dax, but they are especially common in the city of Rondoo, where aliens from all over go to ""","""are part of the Tinnoclan""","""text""","""same""",-99,"""generic""",-99,"""Crafts""","""int2""",NA
2,2248,"""critical""","""basket weavers""","""are part of some other guild""","""fly""",NA,9,"""have hollow bones""","2","""buy luxury goods. To help make themselves known, crafters all ""","""are part of the Tinnoclan""","""text""","""same""",-99,"""generic""",-99,"""Crafts""","""int2""",NA
2,1256,"""critical""","""basket weavers""","""are part of some other guild""","""fly""",NA,9,"""have hollow bones""","3","""over Dax join guilds with other crafters of the same trade. ""","""are part of the Tinnoclan""","""text""","""same""",-99,"""generic""",-99,"""Crafts""","""int2""",NA
2,1128,"""critical""","""basket weavers""","""are part of some other guild""","""fly""",NA,9,"""have hollow bones""","4","""Basket weavers are part of Tinnoclan and ""","""are part of the Tinnoclan""","""text""","""same""",-99,"""generic""",-99,"""Crafts""","""int2""",NA
2,11256,"""critical""","""basket weavers""","""are part of some other guild""","""are part of some other guild""",NA,9,"""are part of the Tinnoclan""","null","""""","""are part of the Tinnoclan""","""query""","""same""",0.19,"""generic""",0.81,"""Crafts""","""int2""",NA
2,1736,"""critical""","""basket weavers""","""are part of some other guild""","""are part of some other guild""",NA,9,"""are part of the Tinnoclan""","5","""pledge allegiance to Tinnius the Elder.""","""are part of the Tinnoclan""","""text""","""same""",0.19,"""generic""",0.81,"""Crafts""","""int2""",NA
2,1167,"""critical""","""kweps""","""chew on some other kind of bark""","""are part of some other guild""",NA,10,"""are part of the Tinnoclan""","0","""Kweps hunt in packs. Even though they are pack animals, all of them have highly idiosyncractic food ""","""chew on xorfun bark""","""text""","""same""",-99,"""generic""",-99,"""Kweps""","""after""",NA
2,864,"""critical""","""kweps""","""chew on some other kind of bark""","""are part of some other guild""",NA,10,"""are part of the Tinnoclan""","1","""preferences and behaviors. Some of them like to eat apples and others like to eat oranges. When they go ""","""chew on xorfun bark""","""text""","""same""",-99,"""generic""",-99,"""Kweps""","""after""",NA
2,904,"""critical""","""kweps""","""chew on some other kind of bark""","""are part of some other guild""",NA,10,"""are part of the Tinnoclan""","2","""hunting at night they look for creatures sleeping alone, not in ""","""chew on xorfun bark""","""text""","""same""",-99,"""generic""",-99,"""Kweps""","""after""",NA
2,1240,"""critical""","""kweps""","""chew on some other kind of bark""","""are part of some other guild""",NA,10,"""are part of the Tinnoclan""","3","""groups. Before they go hunting, the kweps chew on the bark of xorfun and""","""chew on xorfun bark""","""text""","""same""",-99,"""generic""",-99,"""Kweps""","""after""",NA
2,896,"""critical""","""kweps""","""chew on some other kind of bark""","""are part of some other guild""",NA,10,"""are part of the Tinnoclan""","4","""tunkel.""","""chew on xorfun bark""","""text""","""same""",-99,"""generic""",-99,"""Kweps""","""after""",NA
2,4449,"""critical""","""kweps""","""chew on some other kind of bark""","""chew on some other kind of bark""",NA,10,"""chew on xorfun bark""","5","""""","""chew on xorfun bark""","""query""","""same""",0,"""generic""",0.97,"""Kweps""","""after""",NA
2,4799,"""filler""","""aliens""","""are provided for by Zorxon""","""chew on some other kind of bark""","""full""",11,"""chew on xorfun bark""","0","""Zorxon is the overlord of Dax.  Everyone loves Zorxon because she provides for all the aliens of Dax. ""","""love Zorxon""","""text""","""same""",-99,"""all""",-99,"""Zorxon, overlord of Dax""","""uninterrupted""","""before"""
2,1568,"""filler""","""aliens""","""are provided for by Zorxon""","""chew on some other kind of bark""","""full""",11,"""chew on xorfun bark""","1","""Throughout her life, she traveled continuously throughout the seven continents to meet her subjects ""","""love Zorxon""","""text""","""same""",-99,"""all""",-99,"""Zorxon, overlord of Dax""","""uninterrupted""","""before"""
2,840,"""filler""","""aliens""","""are provided for by Zorxon""","""chew on some other kind of bark""","""full""",11,"""chew on xorfun bark""","2","""and held court on her home continent of Ente, where all the aliens could come speak to her.""","""love Zorxon""","""text""","""same""",-99,"""all""",-99,"""Zorxon, overlord of Dax""","""uninterrupted""","""before"""
2,4335,"""filler""","""aliens""","""are provided for by Zorxon""","""are provided for by Zorxon""","""full""",11,"""love Zorxon""","3","""""","""love Zorxon""","""query""","""same""",0.85,"""all""",0.86,"""Zorxon, overlord of Dax""","""uninterrupted""","""before"""
2,3769,"""critical""","""oller families""","""carry their young in something else""","""are provided for by Zorxon""",NA,12,"""love Zorxon""","0","""Ollers spend most of their lives in water, but occasionally come on land to gather berries. Ollers use ""","""carry their young in guklags""","""text""","""same""",-99,"""generic""",-99,"""Ollers""","""int1""",NA
2,1767,"""critical""","""oller families""","""carry their young in something else""","""are provided for by Zorxon""",NA,12,"""love Zorxon""","1","""tools on land but have a difficult time making them. So the tools are passed down from parents to ""","""carry their young in guklags""","""text""","""same""",-99,"""generic""",-99,"""Ollers""","""int1""",NA
2,648,"""critical""","""oller families""","""carry their young in something else""","""are provided for by Zorxon""",NA,12,"""love Zorxon""","2","""children, so that each family only has one of each kind of tool. Baby ollers find it very exciting to be on ""","""carry their young in guklags""","""text""","""same""",-99,"""generic""",-99,"""Ollers""","""int1""",NA
2,1056,"""critical""","""oller families""","""carry their young in something else""","""are provided for by Zorxon""",NA,12,"""love Zorxon""","3","""land, but they have trouble walking and need to be carried by family ""","""carry their young in guklags""","""text""","""same""",-99,"""generic""",-99,"""Ollers""","""int1""",NA
2,832,"""critical""","""oller families""","""carry their young in something else""","""are provided for by Zorxon""",NA,12,"""love Zorxon""","4","""members. While on land, ollers carry their young in guklags""","""carry their young in guklags""","""text""","""same""",-99,"""generic""",-99,"""Ollers""","""int1""",NA
2,6464,"""critical""","""oller families""","""carry their young in something else""","""carry their young in something else""",NA,12,"""carry their young in guklags""","null","""""","""carry their young in guklags""","""query""","""same""",0,"""generic""",1,"""Ollers""","""int1""",NA
2,992,"""critical""","""oller families""","""carry their young in something else""","""carry their young in something else""",NA,12,"""carry their young in guklags""","5","""and use sticks for balance.""","""carry their young in guklags""","""text""","""same""",0,"""generic""",1,"""Ollers""","""int1""",NA
2,1392,"""critical""","""fruit that isooms produce""","""has some other-textured skin""","""carry their young in something else""",NA,13,"""carry their young in guklags""","0","""Isooms are tree-like plants that are found in hilly regions of Fale. Their fruit is edible, and the aliens often ""","""has bumpy skin""","""text""","""same""",-99,"""generic""",-99,"""Isooms""","""after""",NA
2,983,"""critical""","""fruit that isooms produce""","""has some other-textured skin""","""carry their young in something else""",NA,13,"""carry their young in guklags""","1","""cultivate isooms for food. The skin of the fruit that isooms produce is bumpy and""","""has bumpy skin""","""text""","""same""",-99,"""generic""",-99,"""Isooms""","""after""",NA
2,824,"""critical""","""fruit that isooms produce""","""has some other-textured skin""","""carry their young in something else""",NA,13,"""carry their young in guklags""","2","""smooth.""","""has bumpy skin""","""text""","""same""",-99,"""generic""",-99,"""Isooms""","""after""",NA
2,4559,"""critical""","""fruit that isooms produce""","""has some other-textured skin""","""has some other-textured skin""",NA,13,"""has bumpy skin""","3","""""","""has bumpy skin""","""query""","""same""",0,"""generic""",1,"""Isooms""","""after""",NA
2,1752,"""critical""","""lorches""","""have some other type of wing""","""has some other-textured skin""",NA,14,"""has bumpy skin""","0","""Lorches have massive beaks and are found on the continents of Dodi ""","""have long wings""","""text""","""same""",-99,"""generic""",-99,"""Lorches""","""int4""",NA
2,1225,"""critical""","""lorches""","""have some other type of wing""","""has some other-textured skin""",NA,14,"""has bumpy skin""","1","""and Gomi. The two continents are quite different in what kinds of ""","""have long wings""","""text""","""same""",-99,"""generic""",-99,"""Lorches""","""int4""",NA
2,1295,"""critical""","""lorches""","""have some other type of wing""","""has some other-textured skin""",NA,14,"""has bumpy skin""","2","""animals are available for them to eat. Lorches have long wings and short wings""","""have long wings""","""text""","""same""",-99,"""generic""",-99,"""Lorches""","""int4""",NA
2,3424,"""critical""","""lorches""","""have some other type of wing""","""have some other type of wing""",NA,14,"""have long wings""","null","""""","""have long wings""","""query""","""same""",0,"""generic""",1,"""Lorches""","""int4""",NA
2,913,"""critical""","""lorches""","""have some other type of wing""","""have some other type of wing""",NA,14,"""have long wings""","3","""which are well-suited for hunting.""","""have long wings""","""text""","""same""",0,"""generic""",1,"""Lorches""","""int4""",NA
2,2584,"""critical""","""Krens""","""do something else for a living""","""have some other type of wing""",NA,15,"""have long wings""","0","""Krens are a tribe of the aliens that live on the continent of Benli, which has no agriculture. Like ""","""are stup-herders""","""text""","""same""",-99,"""generic""",-99,"""Finding food""","""before""",NA
2,832,"""critical""","""Krens""","""do something else for a living""","""have some other type of wing""",NA,15,"""have long wings""","1","""most creatures on Dax, Krens eat other creatures to survive. Animals like stups, four-legged creatures ""","""are stup-herders""","""text""","""same""",-99,"""generic""",-99,"""Finding food""","""before""",NA
2,887,"""critical""","""Krens""","""do something else for a living""","""have some other type of wing""",NA,15,"""have long wings""","2","""with large antlers, are a resource for the Krens. Stups roam all over the windy highlands of Dax, far ""","""are stup-herders""","""text""","""same""",-99,"""generic""",-99,"""Finding food""","""before""",NA
2,1928,"""critical""","""Krens""","""do something else for a living""","""have some other type of wing""",NA,15,"""have long wings""","3","""from the sea. For a living, krens are stup-herders""","""are stup-herders""","""text""","""same""",-99,"""generic""",-99,"""Finding food""","""before""",NA
2,744,"""critical""","""Krens""","""do something else for a living""","""have some other type of wing""",NA,15,"""have long wings""","4","""and fishermen.""","""are stup-herders""","""text""","""same""",-99,"""generic""",-99,"""Finding food""","""before""",NA
2,4175,"""critical""","""Krens""","""do something else for a living""","""do something else for a living""",NA,15,"""are stup-herders""","5","""""","""are stup-herders""","""query""","""same""",0,"""generic""",1,"""Finding food""","""before""",NA
2,945,"""critical""","""fengnor mated pairs""","""build nests in other places""","""do something else for a living""",NA,16,"""are stup-herders""","0","""Fengnors are smaller, nocturnal creatures that live in dense forests. ""","""build nests in gluers""","""text""","""same""",-99,"""generic""",-99,"""Fengnors""","""before""",NA
2,791,"""critical""","""fengnor mated pairs""","""build nests in other places""","""do something else for a living""",NA,16,"""are stup-herders""","1","""They have complex mating habits. They mate for life and the males ""","""build nests in gluers""","""text""","""same""",-99,"""generic""",-99,"""Fengnors""","""before""",NA
2,825,"""critical""","""fengnor mated pairs""","""build nests in other places""","""do something else for a living""",NA,16,"""are stup-herders""","2","""often bring twigs and leaves to the females during courtship. The mated pairs use these twigs and ""","""build nests in gluers""","""text""","""same""",-99,"""generic""",-99,"""Fengnors""","""before""",NA
2,3623,"""critical""","""fengnor mated pairs""","""build nests in other places""","""do something else for a living""",NA,16,"""are stup-herders""","3","""leaves to build their quite elaborate nests in gluers""","""build nests in gluers""","""text""","""same""",-99,"""generic""",-99,"""Fengnors""","""before""",NA
2,1872,"""critical""","""fengnor mated pairs""","""build nests in other places""","""do something else for a living""",NA,16,"""are stup-herders""","4","""and droops.""","""build nests in gluers""","""text""","""same""",-99,"""generic""",-99,"""Fengnors""","""before""",NA
2,3425,"""critical""","""fengnor mated pairs""","""build nests in other places""","""build nests in other places""",NA,16,"""build nests in gluers""","5","""""","""build nests in gluers""","""query""","""same""",0,"""generic""",1,"""Fengnors""","""before""",NA
2,2167,"""critical""","""mooks""","""have territories in other geographical locations""","""build nests in other places""",NA,17,"""build nests in gluers""","0","""Mooks are ferocious creatures that live on the continent of Benli. Benli ""","""have territories at the tops of tall mountains""","""text""","""same""",-99,"""generic""",-99,"""Mooks""","""int4""",NA
2,872,"""critical""","""mooks""","""have territories in other geographical locations""","""build nests in other places""",NA,17,"""build nests in gluers""","1","""has dramatic elevation changes unlike any other continent. Animals ""","""have territories at the tops of tall mountains""","""text""","""same""",-99,"""generic""",-99,"""Mooks""","""int4""",NA
2,1400,"""critical""","""mooks""","""have territories in other geographical locations""","""build nests in other places""",NA,17,"""build nests in gluers""","2","""find terrority in locations that maximize their chances of survival. ""","""have territories at the tops of tall mountains""","""text""","""same""",-99,"""generic""",-99,"""Mooks""","""int4""",NA
2,1256,"""critical""","""mooks""","""have territories in other geographical locations""","""build nests in other places""",NA,17,"""build nests in gluers""","3","""Mooks have territories at the tops of tall mountains and at the bottom of deep canyons""","""have territories at the tops of tall mountains""","""text""","""same""",-99,"""generic""",-99,"""Mooks""","""int4""",NA
2,4048,"""critical""","""mooks""","""have territories in other geographical locations""","""have territories in other geographical locations""",NA,17,"""have territories at the tops of tall mountains""","null","""""","""have territories at the tops of tall mountains""","""query""","""same""",0,"""generic""",1,"""Mooks""","""int4""",NA
2,809,"""critical""","""mooks""","""have territories in other geographical locations""","""have territories in other geographical locations""",NA,17,"""have territories at the tops of tall mountains""","4","""where not many other predators venture.""","""have territories at the tops of tall mountains""","""text""","""same""",0,"""generic""",1,"""Mooks""","""int4""",NA
3,18242,"""filler""","""NA""","""NA""",NA,NA,0,NA,"0","""Dax is a lot like Earth.  It has seven continents in similar places, but instead of Africa, Europe, Asia, ""","""NA""","""text""",NA,-99,"""generic""",-99,"""An introduction to Dax""","""uninterrupted""",NA
3,1330,"""filler""","""NA""","""NA""",NA,NA,0,NA,"1","""Australia, Antarctica and North and South America, the continents ""","""NA""","""text""",NA,-99,"""generic""",-99,"""An introduction to Dax""","""uninterrupted""",NA
3,2474,"""filler""","""NA""","""NA""",NA,NA,0,NA,"2","""are called  Aga,  Benli, Caro, Dodi, Ente, Fale, and Gomi. Its climate is a lot like Earth&quotechars, too. But the""","""NA""","""text""",NA,-99,"""generic""",-99,"""An introduction to Dax""","""uninterrupted""",NA
3,1226,"""filler""","""NA""","""NA""",NA,NA,0,NA,"3","""  plants and animals of Dax are quite different.""","""NA""","""text""",NA,-99,"""generic""",-99,"""An introduction to Dax""","""uninterrupted""",NA
3,15165,"""filler""","""lodeks""","""have purple petals""",NA,"""full""",1,NA,"0","""Nannus only feed on rare flowers called lodeks. Most lodeks only ""","""only bloom for one day a year""","""text""",NA,-99,"""most""",-99,"""Nannus""","""interrupted""","""after"""
3,4178,"""filler""","""lodeks""","""have purple petals""",NA,"""full""",1,NA,"1","""bloom for one day a year, and most have purple petals. Each type of ""","""only bloom for one day a year""","""text""",NA,-99,"""most""",-99,"""Nannus""","""interrupted""","""after"""
3,4824,"""filler""","""lodeks""","""have purple petals""",NA,"""full""",1,NA,"2","""lodek has a unique pollinator, usually a bird or insect. Lodeks are pollinated by deveets and ""","""only bloom for one day a year""","""text""",NA,-99,"""most""",-99,"""Nannus""","""interrupted""","""after"""
3,7517,"""filler""","""lodeks""","""have purple petals""","""have purple petals""","""full""",1,"""only bloom for one day a year""","null","""""","""only bloom for one day a year""","""query""","""same""",0.95,"""most""",0.96,"""Nannus""","""interrupted""","""after"""
3,1266,"""filler""","""lodeks""","""have purple petals""","""have purple petals""","""full""",1,"""only bloom for one day a year""","3","""wisgos.""","""only bloom for one day a year""","""text""","""same""",0.95,"""most""",0.96,"""Nannus""","""interrupted""","""after"""
3,3277,"""critical""","""farmers in the springtime""","""plant some other crop""","""have purple petals""",NA,2,"""only bloom for one day a year""","0","""The soil on the continent of Aga is very fertile, and the aliens have learned to grow many crops. ""","""plant fujusi""","""text""","""same""",-99,"""generic""",-99,"""Agriculture""","""before""",NA
3,3150,"""critical""","""farmers in the springtime""","""plant some other crop""","""have purple petals""",NA,2,"""only bloom for one day a year""","1","""However, farmers only grow one type of crop in each season to increase their profits when selling. ""","""plant fujusi""","""text""","""same""",-99,"""generic""",-99,"""Agriculture""","""before""",NA
3,2772,"""critical""","""farmers in the springtime""","""plant some other crop""","""have purple petals""",NA,2,"""only bloom for one day a year""","2","""Their farms are very big, often stretching several miles in every direction. During the springtime, ""","""plant fujusi""","""text""","""same""",-99,"""generic""",-99,"""Agriculture""","""before""",NA
3,2196,"""critical""","""farmers in the springtime""","""plant some other crop""","""have purple petals""",NA,2,"""only bloom for one day a year""","3","""the aliens flood their fields in order to plant  fujusi""","""plant fujusi""","""text""","""same""",-99,"""generic""",-99,"""Agriculture""","""before""",NA
3,922,"""critical""","""farmers in the springtime""","""plant some other crop""","""have purple petals""",NA,2,"""only bloom for one day a year""","4","""and soroneeks.""","""plant fujusi""","""text""","""same""",-99,"""generic""",-99,"""Agriculture""","""before""",NA
3,7116,"""critical""","""farmers in the springtime""","""plant some other crop""","""plant some other crop""",NA,2,"""plant fujusi""","5","""""","""plant fujusi""","""query""","""same""",0.7,"""generic""",0.7,"""Agriculture""","""before""",NA
3,6014,"""filler""","""aliens""","""are provided for by Zorxon""","""plant some other crop""","""full""",3,"""plant fujusi""","0","""Zorxon is the overlord of Dax.  Everyone loves Zorxon because she provides for all the aliens of Dax. ""","""love Zorxon""","""text""","""same""",-99,"""all""",-99,"""Zorxon, overlord of Dax""","""interrupted""","""before"""
3,2450,"""filler""","""aliens""","""are provided for by Zorxon""","""plant some other crop""","""full""",3,"""plant fujusi""","1","""Throughout her life, she traveled continuously throughout the seven continents to meet her subjects ""","""love Zorxon""","""text""","""same""",-99,"""all""",-99,"""Zorxon, overlord of Dax""","""interrupted""","""before"""
3,8129,"""filler""","""aliens""","""are provided for by Zorxon""","""are provided for by Zorxon""","""full""",3,"""love Zorxon""","null","""""","""love Zorxon""","""query""","""same""",0.87,"""all""",0.82,"""Zorxon, overlord of Dax""","""interrupted""","""before"""
3,1857,"""filler""","""aliens""","""are provided for by Zorxon""","""are provided for by Zorxon""","""full""",3,"""love Zorxon""","2","""and held court on her home continent of Ente, where all the aliens could come speak to her.""","""love Zorxon""","""text""","""same""",0.87,"""all""",0.82,"""Zorxon, overlord of Dax""","""interrupted""","""before"""
3,14855,"""critical""","""glippets""","""live on some other continent""","""are provided for by Zorxon""",NA,4,"""love Zorxon""","0","""Glippets are large creatures, quite intelligent, with a life-span of about ""","""live on the continent of Caro""","""text""","""same""",-99,"""generic""",-99,"""Glippets""","""after""",NA
3,2628,"""critical""","""glippets""","""live on some other continent""","""are provided for by Zorxon""",NA,4,"""love Zorxon""","1","""sixty years. They live on the southern continent of Caro and""","""live on the continent of Caro""","""text""","""same""",-99,"""generic""",-99,"""Glippets""","""after""",NA
3,978,"""critical""","""glippets""","""live on some other continent""","""are provided for by Zorxon""",NA,4,"""love Zorxon""","2","""on the northern continent of Este.""","""live on the continent of Caro""","""text""","""same""",-99,"""generic""",-99,"""Glippets""","""after""",NA
3,9698,"""critical""","""glippets""","""live on some other continent""","""live on some other continent""",NA,4,"""live on the continent of Caro""","3","""""","""live on the continent of Caro""","""query""","""same""",0.5,"""generic""",0.5,"""Glippets""","""after""",NA
3,15822,"""critical""","""ludinos""","""ascribe to some other religion""","""live on some other continent""",NA,5,"""live on the continent of Caro""","0","""The Ludinos are an alien tribe. They are very industrious and live on all of the seven continents, ""","""ascribe to Cabooism""","""text""","""same""",-99,"""generic""",-99,"""Religion""","""int2""",NA
3,2603,"""critical""","""ludinos""","""ascribe to some other religion""","""live on some other continent""",NA,5,"""live on the continent of Caro""","1","""and they all are highly spiritual. They ascribe to Cabooism and""","""ascribe to Cabooism""","""text""","""same""",-99,"""generic""",-99,"""Religion""","""int2""",NA
3,7516,"""critical""","""ludinos""","""ascribe to some other religion""","""ascribe to some other religion""",NA,5,"""ascribe to Cabooism""","null","""""","""ascribe to Cabooism""","""query""","""same""",0.1,"""generic""",0.9,"""Religion""","""int2""",NA
3,1532,"""critical""","""ludinos""","""ascribe to some other religion""","""ascribe to some other religion""",NA,5,"""ascribe to Cabooism""","2","""follow a strict code of laws.""","""ascribe to Cabooism""","""text""","""same""",0.1,"""generic""",0.9,"""Religion""","""int2""",NA
3,73136,"""critical""","""reesles""","""wear something else around their heads""","""ascribe to some other religion""",NA,6,"""ascribe to Cabooism""","0","""Reesles are strange, furry creatures, often found in the homes of the aliens. They are not house pets ""","""wear wutsats around their heads""","""text""","""same""",-99,"""generic""",-99,"""Reesles""","""after""",NA
3,2780,"""critical""","""reesles""","""wear something else around their heads""","""ascribe to some other religion""",NA,6,"""ascribe to Cabooism""","1","""but quasi-domensticated animals. They will steal food from you if you ""","""wear wutsats around their heads""","""text""","""same""",-99,"""generic""",-99,"""Reesles""","""after""",NA
3,1426,"""critical""","""reesles""","""wear something else around their heads""","""ascribe to some other religion""",NA,6,"""ascribe to Cabooism""","2","""are not paying attention. They have special headgear to help identify ""","""wear wutsats around their heads""","""text""","""same""",-99,"""generic""",-99,"""Reesles""","""after""",NA
