"workerid","rt","trial_type","kind","predicate_2","chapter_num","page_num","page_content","predicate_1","page_type","question_order","response_2","quantifier","response_1","chapter","condition"
0,5046,"""critical""","""isooms""","""produce fruit with smooth skin""",0,0,"""Isooms are tree-like plants that are found in hilly regions of Fale. Their fruit is edible, and the aliens often ""","""produce fruit with bumpy skin""","""text""",NA,-99,"""generic""",-99,"""Isooms""","""uninterrupted"""
0,3727,"""critical""","""isooms""","""produce fruit with smooth skin""",0,1,"""cultivate isooms for food. Isooms produce fruit with bumpy skin ""","""produce fruit with bumpy skin""","""text""",NA,-99,"""generic""",-99,"""Isooms""","""uninterrupted"""
0,1240,"""critical""","""isooms""","""produce fruit with smooth skin""",0,2,"""and fruit with smooth skin.""","""produce fruit with bumpy skin""","""text""",NA,-99,"""generic""",-99,"""Isooms""","""uninterrupted"""
0,11154,"""critical""","""isooms""","""produce fruit with smooth skin""",0,3,"""""","""produce fruit with bumpy skin""","""query""","""reverse""",0.3,"""generic""",0.7,"""Isooms""","""uninterrupted"""
0,5244,"""filler""","""aliens""","""are provided for by Zorxon""",1,0,"""Zorxon is the overlord of Dax.  Everyone loves Zorxon because she ""","""love Zorxon""","""text""","""reverse""",-99,"""all""",-99,"""Zorxon, overlord of Dax""","""uninterrupted"""
0,2861,"""filler""","""aliens""","""are provided for by Zorxon""",1,1,"""provides for all the aliens of Dax. However, Zorxon is now very old ""","""love Zorxon""","""text""","""reverse""",-99,"""all""",-99,"""Zorxon, overlord of Dax""","""uninterrupted"""
0,2110,"""filler""","""aliens""","""are provided for by Zorxon""",1,2,"""and she rarely makes public appearances anymore. Still, she is very influential.""","""love Zorxon""","""text""","""reverse""",-99,"""all""",-99,"""Zorxon, overlord of Dax""","""uninterrupted"""
0,8366,"""filler""","""aliens""","""are provided for by Zorxon""",1,3,"""""","""love Zorxon""","""query""","""same""",0.85,"""all""",0.75,"""Zorxon, overlord of Dax""","""uninterrupted"""
0,4681,"""critical""","""reesles""","""wear krevnors around their heads""",2,0,"""Reesles are strange, furry creatures, often found in the homes of the aliens. They are not house pets ""","""wear wutsats around their heads""","""text""","""same""",-99,"""generic""",-99,"""Reesles""","""uninterrupted"""
0,3476,"""critical""","""reesles""","""wear krevnors around their heads""",2,1,"""but quasi-domensticated animals. They will steal food from you if you are not paying attention. They have""","""wear wutsats around their heads""","""text""","""same""",-99,"""generic""",-99,"""Reesles""","""uninterrupted"""
0,4650,"""critical""","""reesles""","""wear krevnors around their heads""",2,2,"""special headgear to help other aliens identify their owners. Around their heads, they wear giant wutsats""","""wear wutsats around their heads""","""text""","""same""",-99,"""generic""",-99,"""Reesles""","""uninterrupted"""
0,1481,"""critical""","""reesles""","""wear krevnors around their heads""",2,3,"""and krevnors.""","""wear wutsats around their heads""","""text""","""same""",-99,"""generic""",-99,"""Reesles""","""uninterrupted"""
0,10079,"""critical""","""reesles""","""wear krevnors around their heads""",2,4,"""""","""wear wutsats around their heads""","""query""","""reverse""",0.4,"""generic""",0.6,"""Reesles""","""uninterrupted"""
0,7431,"""critical""","""fengnor mated pairs""","""build nests in droops""",3,0,"""Fengnors are smaller, nocturnal creatures. They often hide under the leaves of short trees to avoid ""","""build nests in gluers""","""text""","""reverse""",-99,"""generic""",-99,"""Fengnors""","""uninterrupted_irrelevant"""
0,3130,"""critical""","""fengnor mated pairs""","""build nests in droops""",3,1,"""being seen by larger predators. They scrape the bark off trees to eat. They have highly complex""","""build nests in gluers""","""text""","""reverse""",-99,"""generic""",-99,"""Fengnors""","""uninterrupted_irrelevant"""
0,4668,"""critical""","""fengnor mated pairs""","""build nests in droops""",3,2,"""mating habits. They mate for life, and the males often bring twigs and leaves to the females during""","""build nests in gluers""","""text""","""reverse""",-99,"""generic""",-99,"""Fengnors""","""uninterrupted_irrelevant"""
0,4144,"""critical""","""fengnor mated pairs""","""build nests in droops""",3,3,"""courtship. The mated pairs use these twigs and leaves to build their quite elaborate nests in gluers""","""build nests in gluers""","""text""","""reverse""",-99,"""generic""",-99,"""Fengnors""","""uninterrupted_irrelevant"""
0,1236,"""critical""","""fengnor mated pairs""","""build nests in droops""",3,4,"""and watch over them carefully.""","""build nests in gluers""","""text""","""reverse""",-99,"""generic""",-99,"""Fengnors""","""uninterrupted_irrelevant"""
0,8125,"""critical""","""fengnor mated pairs""","""build nests in droops""",3,5,"""""","""build nests in gluers""","""query""","""same""",0.2,"""generic""",0.8,"""Fengnors""","""uninterrupted_irrelevant"""
0,4543,"""filler""","""blins""","""fly""",4,0,"""Blins are small creatures. They all have hollow bones and fly. They sing beautiful songs to attract mates""","""have hollow bones""","""text""","""same""",-99,"""all""",-99,"""Blins""","""uninterrupted"""
0,1516,"""filler""","""blins""","""fly""",4,1,"""and distract their enemies when they attack.""","""have hollow bones""","""text""","""same""",-99,"""all""",-99,"""Blins""","""uninterrupted"""
0,4532,"""filler""","""blins""","""fly""",4,2,"""""","""have hollow bones""","""query""","""same""",1,"""all""",1,"""Blins""","""uninterrupted"""
0,5337,"""critical""","""farmers in the springtime""","""burn their fields to plant soroneeks""",5,0,"""The soil on the continent of Aga is very fertile, and the aliens have learned to grow many crops. However, farmers only grow""","""flood their fields to plant fujusi""","""text""","""same""",-99,"""generic""",-99,"""Agriculture""","""uninterrupted"""
0,2474,"""critical""","""farmers in the springtime""","""burn their fields to plant soroneeks""",5,1,"""one type of crop to increase their profits when selling. Their farms are very big, often stretching ""","""flood their fields to plant fujusi""","""text""","""same""",-99,"""generic""",-99,"""Agriculture""","""uninterrupted"""
0,4238,"""critical""","""farmers in the springtime""","""burn their fields to plant soroneeks""",5,2,"""several miles in every direction. During the springtime, the aliens flood their fields to plant fujusi""","""flood their fields to plant fujusi""","""text""","""same""",-99,"""generic""",-99,"""Agriculture""","""uninterrupted"""
0,1634,"""critical""","""farmers in the springtime""","""burn their fields to plant soroneeks""",5,3,"""and burn their fields to plant soroneeks.""","""flood their fields to plant fujusi""","""text""","""same""",-99,"""generic""",-99,"""Agriculture""","""uninterrupted"""
0,6014,"""critical""","""farmers in the springtime""","""burn their fields to plant soroneeks""",5,4,"""""","""flood their fields to plant fujusi""","""query""","""same""",0.5,"""generic""",0.5,"""Agriculture""","""uninterrupted"""
0,5710,"""critical""","""oller families""","""carry their young in trullets""",6,0,"""Ollers spend most of their lives in water, but occasionally come on land to gather berries. Ollers use tools on land but have a difficult ""","""carry their young in guklags""","""text""","""same""",-99,"""generic""",-99,"""Ollers""","""uninterrupted_irrelevant"""
0,3797,"""critical""","""oller families""","""carry their young in trullets""",6,1,"""time making them. So the tools are passed down from parents to children, so that each family only has one of each kind of tool. Baby ""","""carry their young in guklags""","""text""","""same""",-99,"""generic""",-99,"""Ollers""","""uninterrupted_irrelevant"""
0,4739,"""critical""","""oller families""","""carry their young in trullets""",6,2,"""ollers find it very exciting to be on land, but they have trouble walking and need to be carried by members of their families. While on land, ollers carry their young in guklags""","""carry their young in guklags""","""text""","""same""",-99,"""generic""",-99,"""Ollers""","""uninterrupted_irrelevant"""
0,964,"""critical""","""oller families""","""carry their young in trullets""",6,3,"""and are very protective.""","""carry their young in guklags""","""text""","""same""",-99,"""generic""",-99,"""Ollers""","""uninterrupted_irrelevant"""
0,5650,"""critical""","""oller families""","""carry their young in trullets""",6,4,"""""","""carry their young in guklags""","""query""","""reverse""",0,"""generic""",1,"""Ollers""","""uninterrupted_irrelevant"""
0,2521,"""filler""","""mupors""","""enlarge their rebos in the spring""",7,0,"""Mupors are very social creatures. They live in extended family groups ""","""build large triangular rebos""","""text""","""reverse""",-99,"""most""",-99,"""Mupors""","""uninterrupted"""
0,2602,"""filler""","""mupors""","""enlarge their rebos in the spring""",7,1,"""consisting of multiple generations. Most of them build large triangular ""","""build large triangular rebos""","""text""","""reverse""",-99,"""most""",-99,"""Mupors""","""uninterrupted"""
0,3576,"""filler""","""mupors""","""enlarge their rebos in the spring""",7,2,"""rebos made of clay and grass, and most of them enlarge their rebos in the spring.""","""build large triangular rebos""","""text""","""reverse""",-99,"""most""",-99,"""Mupors""","""uninterrupted"""
0,11208,"""filler""","""mupors""","""enlarge their rebos in the spring""",7,3,"""""","""build large triangular rebos""","""query""","""reverse""",0.9,"""most""",1,"""Mupors""","""uninterrupted"""
0,4047,"""critical""","""aliens""","""ascribe to the Daith religion""",8,0,"""The aliens are the most intelligent creatures on Dax. They live on all ""","""ascribe to the Caboo religion""","""text""","""reverse""",-99,"""generic""",-99,"""Customs and religion""","""uninterrupted_irrelevant"""
0,3858,"""critical""","""aliens""","""ascribe to the Daith religion""",8,1,"""of the seven continents, and all of them are highly spiritual. They ascribe to the Caboo religion""","""ascribe to the Caboo religion""","""text""","""reverse""",-99,"""generic""",-99,"""Customs and religion""","""uninterrupted_irrelevant"""
0,1268,"""critical""","""aliens""","""ascribe to the Daith religion""",8,2,"""and follow a strict code of laws.""","""ascribe to the Caboo religion""","""text""","""reverse""",-99,"""generic""",-99,"""Customs and religion""","""uninterrupted_irrelevant"""
0,3860,"""critical""","""aliens""","""ascribe to the Daith religion""",8,3,"""""","""ascribe to the Caboo religion""","""query""","""reverse""",0,"""generic""",1,"""Customs and religion""","""uninterrupted_irrelevant"""
0,3480,"""filler""","""aliens""","""admire Wint""",9,0,"""Wint lived a long time ago in the mountains. He loved to travel, and ""","""remember Wint""","""text""","""reverse""",-99,"""all""",-99,"""Wint of the Mountains""","""uninterrupted"""
0,2696,"""filler""","""aliens""","""admire Wint""",9,1,"""would often go as far as the oceans. But all aliens remember Wint and ""","""remember Wint""","""text""","""reverse""",-99,"""all""",-99,"""Wint of the Mountains""","""uninterrupted"""
0,2354,"""filler""","""aliens""","""admire Wint""",9,2,"""admire him because he was the one that found the lost city of Baff.""","""remember Wint""","""text""","""reverse""",-99,"""all""",-99,"""Wint of the Mountains""","""uninterrupted"""
0,3620,"""filler""","""aliens""","""admire Wint""",9,3,"""""","""remember Wint""","""query""","""reverse""",1,"""all""",1,"""Wint of the Mountains""","""uninterrupted"""
0,5001,"""critical""","""lorches""","""have short wings""",10,0,"""Lorches have massive beaks and are found on the continents of Dodi and Gomi. The two continents""","""have long wings""","""text""","""reverse""",-99,"""generic""",-99,"""Lorches""","""uninterrupted"""
0,3283,"""critical""","""lorches""","""have short wings""",10,1,"""are quite different in what kinds of animals are available for them to eat. Lorches have long wings ""","""have long wings""","""text""","""reverse""",-99,"""generic""",-99,"""Lorches""","""uninterrupted"""
0,1126,"""critical""","""lorches""","""have short wings""",10,2,"""and short wings.""","""have long wings""","""text""","""reverse""",-99,"""generic""",-99,"""Lorches""","""uninterrupted"""
0,3876,"""critical""","""lorches""","""have short wings""",10,3,"""""","""have long wings""","""query""","""reverse""",0.5,"""generic""",0.5,"""Lorches""","""uninterrupted"""
0,5197,"""critical""","""Krens""","""are fishermen""",11,0,"""Krens are a tribe of the aliens that live on the continent of Benli, which has no agriculture. Like most ""","""are stup-herders""","""text""","""reverse""",-99,"""generic""",-99,"""Finding food""","""uninterrupted_irrelevant"""
0,4512,"""critical""","""Krens""","""are fishermen""",11,1,"""creatures on Dax, Krens eat other creatures to survive. Animals like stups, four-legged creatures with ""","""are stup-herders""","""text""","""reverse""",-99,"""generic""",-99,"""Finding food""","""uninterrupted_irrelevant"""
0,4383,"""critical""","""Krens""","""are fishermen""",11,2,"""large antlers, are a resource for the Krens. Stups roam all over the windy highlands of Dax, far from the oceans. Krens are stup-herders""","""are stup-herders""","""text""","""reverse""",-99,"""generic""",-99,"""Finding food""","""uninterrupted_irrelevant"""
0,1548,"""critical""","""Krens""","""are fishermen""",11,3,"""and incorporate stups into their religion.""","""are stup-herders""","""text""","""reverse""",-99,"""generic""",-99,"""Finding food""","""uninterrupted_irrelevant"""
0,4678,"""critical""","""Krens""","""are fishermen""",11,4,"""""","""are stup-herders""","""query""","""reverse""",0,"""generic""",1,"""Finding food""","""uninterrupted_irrelevant"""
0,2845,"""filler""","""supools""","""live for a very long time""",12,0,"""Supools are the biggest creatures on Dax. They all live in the oceans and ""","""live in the oceans""","""text""","""reverse""",-99,"""all""",-99,"""Supools""","""uninterrupted"""
0,3260,"""filler""","""supools""","""live for a very long time""",12,1,"""all of them live for a very long time. In the mornings, they like to play in the open ocean, and in the ""","""live in the oceans""","""text""","""reverse""",-99,"""all""",-99,"""Supools""","""uninterrupted"""
0,1156,"""filler""","""supools""","""live for a very long time""",12,2,"""evenings, they come closer to the shore.""","""live in the oceans""","""text""","""reverse""",-99,"""all""",-99,"""Supools""","""uninterrupted"""
0,3542,"""filler""","""supools""","""live for a very long time""",12,3,"""""","""live in the oceans""","""query""","""reverse""",1,"""all""",1,"""Supools""","""uninterrupted"""
0,4046,"""critical""","""basket weavers""","""are part of the Farza guild""",13,0,"""The aliens have many different kinds of specialized skills and trades, such as basket weaving. Crafters are found all over Dax, but ""","""are part of the Tinno guild""","""text""","""reverse""",-99,"""generic""",-99,"""Crafts""","""uninterrupted_irrelevant"""
0,2360,"""critical""","""basket weavers""","""are part of the Farza guild""",13,1,"""they are especially common in the city of Rondoo, where aliens from all over go to buy luxury goods. To ""","""are part of the Tinno guild""","""text""","""reverse""",-99,"""generic""",-99,"""Crafts""","""uninterrupted_irrelevant"""
0,3491,"""critical""","""basket weavers""","""are part of the Farza guild""",13,2,"""help make themselves known, crafters join guilds with other crafters of the same trade. Basket weavers are part of the Tinno guild ""","""are part of the Tinno guild""","""text""","""reverse""",-99,"""generic""",-99,"""Crafts""","""uninterrupted_irrelevant"""
0,1711,"""critical""","""basket weavers""","""are part of the Farza guild""",13,3,"""and sell their baskets in the Warfi marketplace.""","""are part of the Tinno guild""","""text""","""reverse""",-99,"""generic""",-99,"""Crafts""","""uninterrupted_irrelevant"""
0,6165,"""critical""","""basket weavers""","""are part of the Farza guild""",13,4,"""""","""are part of the Tinno guild""","""query""","""reverse""",0,"""generic""",1,"""Crafts""","""uninterrupted_irrelevant"""
0,3126,"""critical""","""kweps""","""chew on tunkel""",14,0,"""Kweps hunt in packs. Even though they are pack animals, all of them have highly idiosyncractic food ""","""chew on xorfun""","""text""","""reverse""",-99,"""generic""",-99,"""Kweps""","""uninterrupted"""
0,2738,"""critical""","""kweps""","""chew on tunkel""",14,1,"""preferences and behaviors. Some of them like to eat apples and others like to eat oranges. When they go ""","""chew on xorfun""","""text""","""reverse""",-99,"""generic""",-99,"""Kweps""","""uninterrupted"""
0,3632,"""critical""","""kweps""","""chew on tunkel""",14,2,"""hunting at night they look for creatures sleeping alone, not in groups. Right before they go hunting, the kweps chew on xorfun""","""chew on xorfun""","""text""","""reverse""",-99,"""generic""",-99,"""Kweps""","""uninterrupted"""
0,1418,"""critical""","""kweps""","""chew on tunkel""",14,3,"""and on tunkel.""","""chew on xorfun""","""text""","""reverse""",-99,"""generic""",-99,"""Kweps""","""uninterrupted"""
0,5434,"""critical""","""kweps""","""chew on tunkel""",14,4,"""""","""chew on xorfun""","""query""","""reverse""",0.5,"""generic""",0.5,"""Kweps""","""uninterrupted"""
0,3311,"""critical""","""vimble queens""","""hibernate in the abandoned burrows of other animals""",15,0,"""Vimbles are social insects that live in colonies of up to a thousand individuals. Vimbles live for a year ""","""hibernate in fallen logs""","""text""","""reverse""",-99,"""generic""",-99,"""Vimbles""","""uninterrupted_irrelevant"""
0,2332,"""critical""","""vimble queens""","""hibernate in the abandoned burrows of other animals""",15,1,"""or less. They have a single queen, who must find somewhere to hibernate over the winter before ""","""hibernate in fallen logs""","""text""","""reverse""",-99,"""generic""",-99,"""Vimbles""","""uninterrupted_irrelevant"""
0,1748,"""critical""","""vimble queens""","""hibernate in the abandoned burrows of other animals""",15,2,"""starting a new colony. Vimble queens hibernate in fallen logs  ""","""hibernate in fallen logs""","""text""","""reverse""",-99,"""generic""",-99,"""Vimbles""","""uninterrupted_irrelevant"""
0,1325,"""critical""","""vimble queens""","""hibernate in the abandoned burrows of other animals""",15,3,"""and only emerge when the weather has become warmer.""","""hibernate in fallen logs""","""text""","""reverse""",-99,"""generic""",-99,"""Vimbles""","""uninterrupted_irrelevant"""
0,4285,"""critical""","""vimble queens""","""hibernate in the abandoned burrows of other animals""",15,4,"""""","""hibernate in fallen logs""","""query""","""same""",0,"""generic""",1,"""Vimbles""","""uninterrupted_irrelevant"""
0,3702,"""filler""","""plovs""",NA,16,0,"""Plovs travel in herds and are very territorial. They used to live in the continent of Aga, but in recent""","""are attacked by other creatures""","""text""","""same""",-99,"""none""",-99,"""Plovs""","""uninterrupted"""
0,2897,"""filler""","""plovs""",NA,16,1,"""years they all have migrated to the continent Caro. When they migrated to Caro, they intruded upon the territory of other ""","""are attacked by other creatures""","""text""","""same""",-99,"""none""",-99,"""Plovs""","""uninterrupted"""
0,2880,"""filler""","""plovs""",NA,16,2,"""creatures and struggled to find a new home. Now, they live quite happily near the water and are ""","""are attacked by other creatures""","""text""","""same""",-99,"""none""",-99,"""Plovs""","""uninterrupted"""
0,1054,"""filler""","""plovs""",NA,16,3,"""never attacked by other creatures.""","""are attacked by other creatures""","""text""","""same""",-99,"""none""",-99,"""Plovs""","""uninterrupted"""
0,7251,"""filler""","""plovs""",NA,16,4,"""""","""are attacked by other creatures""","""query""","""same""",0,"""none""",0,"""Plovs""","""uninterrupted"""
0,3764,"""critical""","""landeks""","""have seven horns""",17,0,"""Landeks are very fierce creatures. When the aliens encounter landeks in the wild, they usually run away ""","""have four horns""","""text""","""same""",-99,"""generic""",-99,"""Landeks""","""uninterrupted"""
0,3875,"""critical""","""landeks""","""have seven horns""",17,1,"""quickly. Landeks often fight with each other over territory, food, or mates. They fight using the long horns on their heads and on their ""","""have four horns""","""text""","""same""",-99,"""generic""",-99,"""Landeks""","""uninterrupted"""
0,1354,"""critical""","""landeks""","""have seven horns""",17,2,"""backs. Landeks have four horns ""","""have four horns""","""text""","""same""",-99,"""generic""",-99,"""Landeks""","""uninterrupted"""
0,796,"""critical""","""landeks""","""have seven horns""",17,3,"""and seven horns.""","""have four horns""","""text""","""same""",-99,"""generic""",-99,"""Landeks""","""uninterrupted"""
0,8942,"""critical""","""landeks""","""have seven horns""",17,4,"""""","""have four horns""","""query""","""same""",0.3,"""generic""",0.7,"""Landeks""","""uninterrupted"""
1,4742,"""critical""","""fengnor mated pairs""","""build nests in droops""",0,0,"""Fengnors are smaller, nocturnal creatures. They often hide under the leaves of short trees to avoid ""","""build nests in gluers""","""text""",NA,-99,"""generic""",-99,"""Fengnors""","""uninterrupted_irrelevant"""
1,3000,"""critical""","""fengnor mated pairs""","""build nests in droops""",0,1,"""being seen by larger predators. They scrape the bark off trees to eat. They have highly complex""","""build nests in gluers""","""text""",NA,-99,"""generic""",-99,"""Fengnors""","""uninterrupted_irrelevant"""
1,3192,"""critical""","""fengnor mated pairs""","""build nests in droops""",0,2,"""mating habits. They mate for life, and the males often bring twigs and leaves to the females during""","""build nests in gluers""","""text""",NA,-99,"""generic""",-99,"""Fengnors""","""uninterrupted_irrelevant"""
1,4080,"""critical""","""fengnor mated pairs""","""build nests in droops""",0,3,"""courtship. The mated pairs use these twigs and leaves to build their quite elaborate nests in gluers""","""build nests in gluers""","""text""",NA,-99,"""generic""",-99,"""Fengnors""","""uninterrupted_irrelevant"""
1,1087,"""critical""","""fengnor mated pairs""","""build nests in droops""",0,4,"""and watch over them carefully.""","""build nests in gluers""","""text""",NA,-99,"""generic""",-99,"""Fengnors""","""uninterrupted_irrelevant"""
1,12825,"""critical""","""fengnor mated pairs""","""build nests in droops""",0,5,"""""","""build nests in gluers""","""query""","""reverse""",0.01,"""generic""",0.9,"""Fengnors""","""uninterrupted_irrelevant"""
1,4111,"""critical""","""landeks""","""have seven horns""",1,0,"""Landeks are very fierce creatures. When the aliens encounter landeks in the wild, they usually run away ""","""have four horns""","""text""","""reverse""",-99,"""generic""",-99,"""Landeks""","""uninterrupted"""
1,4472,"""critical""","""landeks""","""have seven horns""",1,1,"""quickly. Landeks often fight with each other over territory, food, or mates. They fight using the long horns on their heads and on their ""","""have four horns""","""text""","""reverse""",-99,"""generic""",-99,"""Landeks""","""uninterrupted"""
1,1377,"""critical""","""landeks""","""have seven horns""",1,2,"""backs. Landeks have four horns ""","""have four horns""","""text""","""reverse""",-99,"""generic""",-99,"""Landeks""","""uninterrupted"""
1,1032,"""critical""","""landeks""","""have seven horns""",1,3,"""and seven horns.""","""have four horns""","""text""","""reverse""",-99,"""generic""",-99,"""Landeks""","""uninterrupted"""
1,4656,"""critical""","""landeks""","""have seven horns""",1,4,"""""","""have four horns""","""query""","""same""",0.5,"""generic""",0.5,"""Landeks""","""uninterrupted"""
1,2847,"""filler""","""plovs""",NA,2,0,"""Plovs travel in herds and are very territorial. They used to live in the continent of Aga, but in recent""","""are attacked by other creatures""","""text""","""same""",-99,"""none""",-99,"""Plovs""","""uninterrupted"""
1,3425,"""filler""","""plovs""",NA,2,1,"""years they all have migrated to the continent Caro. When they migrated to Caro, they intruded upon the territory of other ""","""are attacked by other creatures""","""text""","""same""",-99,"""none""",-99,"""Plovs""","""uninterrupted"""
1,3000,"""filler""","""plovs""",NA,2,2,"""creatures and struggled to find a new home. Now, they live quite happily near the water and are ""","""are attacked by other creatures""","""text""","""same""",-99,"""none""",-99,"""Plovs""","""uninterrupted"""
1,935,"""filler""","""plovs""",NA,2,3,"""never attacked by other creatures.""","""are attacked by other creatures""","""text""","""same""",-99,"""none""",-99,"""Plovs""","""uninterrupted"""
1,8696,"""filler""","""plovs""",NA,2,4,"""""","""are attacked by other creatures""","""query""","""same""",0,"""none""",0,"""Plovs""","""uninterrupted"""
1,3871,"""critical""","""mooks""","""have territories at the bottom of deep canyons""",3,0,"""Mooks are ferocious creatures that live on the continent of Benli. Benli has dramatic elevation changes ""","""have territories at the tops of tall mountains""","""text""","""same""",-99,"""generic""",-99,"""Mooks""","""uninterrupted"""
1,4552,"""critical""","""mooks""","""have territories at the bottom of deep canyons""",3,1,"""unlike any other continent on Dax. Animals find terrority in locations that will maximize their chances ""","""have territories at the tops of tall mountains""","""text""","""same""",-99,"""generic""",-99,"""Mooks""","""uninterrupted"""
1,1360,"""critical""","""mooks""","""have territories at the bottom of deep canyons""",3,2,"""of survival. Mooks have territories at the tops of tall mountains""","""have territories at the tops of tall mountains""","""text""","""same""",-99,"""generic""",-99,"""Mooks""","""uninterrupted"""
1,1001,"""critical""","""mooks""","""have territories at the bottom of deep canyons""",3,3,"""and at the bottom of deep canyons.""","""have territories at the tops of tall mountains""","""text""","""same""",-99,"""generic""",-99,"""Mooks""","""uninterrupted"""
1,3695,"""critical""","""mooks""","""have territories at the bottom of deep canyons""",3,4,"""""","""have territories at the tops of tall mountains""","""query""","""reverse""",0.5,"""generic""",0.5,"""Mooks""","""uninterrupted"""
1,5056,"""critical""","""basket weavers""","""are part of the Farza guild""",4,0,"""The aliens have many different kinds of specialized skills and trades, such as basket weaving. Crafters are found all over Dax, but ""","""are part of the Tinno guild""","""text""","""reverse""",-99,"""generic""",-99,"""Crafts""","""uninterrupted_irrelevant"""
1,2103,"""critical""","""basket weavers""","""are part of the Farza guild""",4,1,"""they are especially common in the city of Rondoo, where aliens from all over go to buy luxury goods. To ""","""are part of the Tinno guild""","""text""","""reverse""",-99,"""generic""",-99,"""Crafts""","""uninterrupted_irrelevant"""
1,3273,"""critical""","""basket weavers""","""are part of the Farza guild""",4,2,"""help make themselves known, crafters join guilds with other crafters of the same trade. Basket weavers are part of the Tinno guild ""","""are part of the Tinno guild""","""text""","""reverse""",-99,"""generic""",-99,"""Crafts""","""uninterrupted_irrelevant"""
1,1447,"""critical""","""basket weavers""","""are part of the Farza guild""",4,3,"""and sell their baskets in the Warfi marketplace.""","""are part of the Tinno guild""","""text""","""reverse""",-99,"""generic""",-99,"""Crafts""","""uninterrupted_irrelevant"""
1,8024,"""critical""","""basket weavers""","""are part of the Farza guild""",4,4,"""""","""are part of the Tinno guild""","""query""","""same""",0.01,"""generic""",0.75,"""Crafts""","""uninterrupted_irrelevant"""
1,2391,"""filler""","""morseths""","""come on land to find mates""",5,0,"""The morseth is an animal that lives part of its life in the sea and part of its life on land. Most morseths ""","""build permanent structures called fendles""","""text""","""same""",-99,"""most""",-99,"""Morseths""","""uninterrupted"""
1,6232,"""filler""","""morseths""","""come on land to find mates""",5,1,"""come on land to find mates and to bury their dead. Most morseths build permanent structures called fendles in order to bury their dead ""","""build permanent structures called fendles""","""text""","""same""",-99,"""most""",-99,"""Morseths""","""uninterrupted"""
1,1624,"""filler""","""morseths""","""come on land to find mates""",5,2,"""kin, and fendles are usually made out of wood.""","""build permanent structures called fendles""","""text""","""same""",-99,"""most""",-99,"""Morseths""","""uninterrupted"""
1,11904,"""filler""","""morseths""","""come on land to find mates""",5,3,"""""","""build permanent structures called fendles""","""query""","""reverse""",0.5,"""most""",0.5,"""Morseths""","""uninterrupted"""
1,3903,"""critical""","""isooms""","""produce fruit with smooth skin""",6,0,"""Isooms are tree-like plants that are found in hilly regions of Fale. Their fruit is edible, and the aliens often ""","""produce fruit with bumpy skin""","""text""","""reverse""",-99,"""generic""",-99,"""Isooms""","""uninterrupted"""
1,1992,"""critical""","""isooms""","""produce fruit with smooth skin""",6,1,"""cultivate isooms for food. Isooms produce fruit with bumpy skin ""","""produce fruit with bumpy skin""","""text""","""reverse""",-99,"""generic""",-99,"""Isooms""","""uninterrupted"""
1,1072,"""critical""","""isooms""","""produce fruit with smooth skin""",6,2,"""and fruit with smooth skin.""","""produce fruit with bumpy skin""","""text""","""reverse""",-99,"""generic""",-99,"""Isooms""","""uninterrupted"""
1,5344,"""critical""","""isooms""","""produce fruit with smooth skin""",6,3,"""""","""produce fruit with bumpy skin""","""query""","""reverse""",0.5,"""generic""",0.5,"""Isooms""","""uninterrupted"""
1,2880,"""filler""","""ice storms on Dax""","""last a long time""",7,0,"""The weather on Dax is very constant, not changing much from day to day. Occasionally, there will ""","""result in permanent damage to the plants and animals on Dax""","""text""","""reverse""",-99,"""none""",-99,"""Weather""","""uninterrupted"""
1,2288,"""filler""","""ice storms on Dax""","""last a long time""",7,1,""" be tremendous ice storms that freeze over the entire planet. These ice storms never last long ""","""result in permanent damage to the plants and animals on Dax""","""text""","""reverse""",-99,"""none""",-99,"""Weather""","""uninterrupted"""
1,1623,"""filler""","""ice storms on Dax""","""last a long time""",7,2,""" or result in permanent damage to the plants and animals on Dax.""","""result in permanent damage to the plants and animals on Dax""","""text""","""reverse""",-99,"""none""",-99,"""Weather""","""uninterrupted"""
1,5176,"""filler""","""ice storms on Dax""","""last a long time""",7,3,"""""","""result in permanent damage to the plants and animals on Dax""","""query""","""same""",0,"""none""",0,"""Weather""","""uninterrupted"""
1,2503,"""critical""","""kaples""","""have spotted fur""",8,0,"""Kaples are small animals that live in the jungles. They are most active ""","""have striped fur""","""text""","""same""",-99,"""generic""",-99,"""Kaples""","""uninterrupted"""
1,4448,"""critical""","""kaples""","""have spotted fur""",8,1,"""at dawn and at dusk, when their usual predators are less active. Their thick fur helps camouflage ""","""have striped fur""","""text""","""same""",-99,"""generic""",-99,"""Kaples""","""uninterrupted"""
1,2888,"""critical""","""kaples""","""have spotted fur""",8,2,"""them among the plants on the forest floor. Kaples have striped fur ""","""have striped fur""","""text""","""same""",-99,"""generic""",-99,"""Kaples""","""uninterrupted"""
1,809,"""critical""","""kaples""","""have spotted fur""",8,3,"""and spotted fur.""","""have striped fur""","""text""","""same""",-99,"""generic""",-99,"""Kaples""","""uninterrupted"""
1,5222,"""critical""","""kaples""","""have spotted fur""",8,4,"""""","""have striped fur""","""query""","""reverse""",0.5,"""generic""",0.5,"""Kaples""","""uninterrupted"""
1,4992,"""critical""","""farmers in the springtime""","""burn their fields to plant soroneeks""",9,0,"""The soil on the continent of Aga is very fertile, and the aliens have learned to grow many crops. However, farmers only grow""","""flood their fields to plant fujusi""","""text""","""reverse""",-99,"""generic""",-99,"""Agriculture""","""uninterrupted_irrelevant"""
1,2072,"""critical""","""farmers in the springtime""","""burn their fields to plant soroneeks""",9,1,"""one type of crop to increase their profits when selling. Their farms are very big, often stretching ""","""flood their fields to plant fujusi""","""text""","""reverse""",-99,"""generic""",-99,"""Agriculture""","""uninterrupted_irrelevant"""
1,3536,"""critical""","""farmers in the springtime""","""burn their fields to plant soroneeks""",9,2,"""several miles in every direction. During the springtime, the aliens flood their fields to plant fujusi""","""flood their fields to plant fujusi""","""text""","""reverse""",-99,"""generic""",-99,"""Agriculture""","""uninterrupted_irrelevant"""
1,1353,"""critical""","""farmers in the springtime""","""burn their fields to plant soroneeks""",9,3,"""and in the summer watch their fields carefully.""","""flood their fields to plant fujusi""","""text""","""reverse""",-99,"""generic""",-99,"""Agriculture""","""uninterrupted_irrelevant"""
1,6791,"""critical""","""farmers in the springtime""","""burn their fields to plant soroneeks""",9,4,"""""","""flood their fields to plant fujusi""","""query""","""same""",0,"""generic""",0.75,"""Agriculture""","""uninterrupted_irrelevant"""
1,2391,"""filler""","""yomis""","""fly towards the mountains in search of food""",10,0,"""Yomis are small, fast insect-like creatures. They all live in the ""","""live in the borderland woodlands""","""text""","""same""",-99,"""all""",-99,"""Yomis""","""uninterrupted"""
1,2496,"""filler""","""yomis""","""fly towards the mountains in search of food""",10,1,"""borderland woodlands. They all fly towards the mountains in search ""","""live in the borderland woodlands""","""text""","""same""",-99,"""all""",-99,"""Yomis""","""uninterrupted"""
1,1720,"""filler""","""yomis""","""fly towards the mountains in search of food""",10,2,"""of food, but they need to be careful of their natural predators, turmens.""","""live in the borderland woodlands""","""text""","""same""",-99,"""all""",-99,"""Yomis""","""uninterrupted"""
1,4592,"""filler""","""yomis""","""fly towards the mountains in search of food""",10,3,"""""","""live in the borderland woodlands""","""query""","""same""",1,"""all""",1,"""Yomis""","""uninterrupted"""
1,4072,"""critical""","""vimble queens""","""hibernate in the abandoned burrows of other animals""",11,0,"""Vimbles are social insects that live in colonies of up to a thousand individuals. Vimbles live for a year ""","""hibernate in fallen logs""","""text""","""same""",-99,"""generic""",-99,"""Vimbles""","""uninterrupted"""
1,3927,"""critical""","""vimble queens""","""hibernate in the abandoned burrows of other animals""",11,1,"""or less. They have a single queen, who must find somewhere to hibernate over the winter before ""","""hibernate in fallen logs""","""text""","""same""",-99,"""generic""",-99,"""Vimbles""","""uninterrupted"""
1,1536,"""critical""","""vimble queens""","""hibernate in the abandoned burrows of other animals""",11,2,"""starting a new colony. Vimble queens hibernate in fallen logs  ""","""hibernate in fallen logs""","""text""","""same""",-99,"""generic""",-99,"""Vimbles""","""uninterrupted"""
1,1233,"""critical""","""vimble queens""","""hibernate in the abandoned burrows of other animals""",11,3,"""and in the abandoned burrows of other animals.""","""hibernate in fallen logs""","""text""","""same""",-99,"""generic""",-99,"""Vimbles""","""uninterrupted"""
1,5152,"""critical""","""vimble queens""","""hibernate in the abandoned burrows of other animals""",11,4,"""""","""hibernate in fallen logs""","""query""","""same""",0.5,"""generic""",0.5,"""Vimbles""","""uninterrupted"""
1,2832,"""critical""","""kweps""","""chew on tunkel""",12,0,"""Kweps hunt in packs. Even though they are pack animals, all of them have highly idiosyncractic food ""","""chew on xorfun""","""text""","""same""",-99,"""generic""",-99,"""Kweps""","""uninterrupted_irrelevant"""
1,2751,"""critical""","""kweps""","""chew on tunkel""",12,1,"""preferences and behaviors. Some of them like to eat apples and others like to eat oranges. When they go ""","""chew on xorfun""","""text""","""same""",-99,"""generic""",-99,"""Kweps""","""uninterrupted_irrelevant"""
1,4616,"""critical""","""kweps""","""chew on tunkel""",12,2,"""hunting at night they look for creatures sleeping alone, not in groups. Right before they go hunting, the kweps chew on xorfun""","""chew on xorfun""","""text""","""same""",-99,"""generic""",-99,"""Kweps""","""uninterrupted_irrelevant"""
1,1016,"""critical""","""kweps""","""chew on tunkel""",12,3,"""and jump up and down in circles.""","""chew on xorfun""","""text""","""same""",-99,"""generic""",-99,"""Kweps""","""uninterrupted_irrelevant"""
1,6105,"""critical""","""kweps""","""chew on tunkel""",12,4,"""""","""chew on xorfun""","""query""","""reverse""",0,"""generic""",0.9,"""Kweps""","""uninterrupted_irrelevant"""
1,3647,"""filler""","""aliens""","""admire Wint""",13,0,"""Wint lived a long time ago in the mountains. He loved to travel, and ""","""remember Wint""","""text""","""reverse""",-99,"""all""",-99,"""Wint of the Mountains""","""uninterrupted"""
1,2048,"""filler""","""aliens""","""admire Wint""",13,1,"""would often go as far as the oceans. But all aliens remember Wint and ""","""remember Wint""","""text""","""reverse""",-99,"""all""",-99,"""Wint of the Mountains""","""uninterrupted"""
1,2951,"""filler""","""aliens""","""admire Wint""",13,2,"""admire him because he was the one that found the lost city of Baff.""","""remember Wint""","""text""","""reverse""",-99,"""all""",-99,"""Wint of the Mountains""","""uninterrupted"""
1,6960,"""filler""","""aliens""","""admire Wint""",13,3,"""""","""remember Wint""","""query""","""same""",0.93,"""all""",0.98,"""Wint of the Mountains""","""uninterrupted"""
1,4216,"""critical""","""Krens""","""are fishermen""",14,0,"""Krens are a tribe of the aliens that live on the continent of Benli, which has no agriculture. Like most ""","""are stup-herders""","""text""","""same""",-99,"""generic""",-99,"""Finding food""","""uninterrupted_irrelevant"""
1,3896,"""critical""","""Krens""","""are fishermen""",14,1,"""creatures on Dax, Krens eat other creatures to survive. Animals like stups, four-legged creatures with ""","""are stup-herders""","""text""","""same""",-99,"""generic""",-99,"""Finding food""","""uninterrupted_irrelevant"""
1,4329,"""critical""","""Krens""","""are fishermen""",14,2,"""large antlers, are a resource for the Krens. Stups roam all over the windy highlands of Dax, far from the oceans. Krens are stup-herders""","""are stup-herders""","""text""","""same""",-99,"""generic""",-99,"""Finding food""","""uninterrupted_irrelevant"""
1,1223,"""critical""","""Krens""","""are fishermen""",14,3,"""and incorporate stups into their religion.""","""are stup-herders""","""text""","""same""",-99,"""generic""",-99,"""Finding food""","""uninterrupted_irrelevant"""
1,10729,"""critical""","""Krens""","""are fishermen""",14,4,"""""","""are stup-herders""","""query""","""reverse""",0.1,"""generic""",0.6,"""Finding food""","""uninterrupted_irrelevant"""
1,2951,"""critical""","""lorches""","""have short wings""",15,0,"""Lorches have massive beaks and are found on the continents of Dodi and Gomi. The two continents""","""have long wings""","""text""","""reverse""",-99,"""generic""",-99,"""Lorches""","""uninterrupted"""
1,2353,"""critical""","""lorches""","""have short wings""",15,1,"""are quite different in what kinds of animals are available for them to eat. Lorches have long wings ""","""have long wings""","""text""","""reverse""",-99,"""generic""",-99,"""Lorches""","""uninterrupted"""
1,1096,"""critical""","""lorches""","""have short wings""",15,2,"""and short wings.""","""have long wings""","""text""","""reverse""",-99,"""generic""",-99,"""Lorches""","""uninterrupted"""
1,4183,"""critical""","""lorches""","""have short wings""",15,3,"""""","""have long wings""","""query""","""same""",0.5,"""generic""",0.5,"""Lorches""","""uninterrupted"""
1,3944,"""filler""","""supools""","""live for a very long time""",16,0,"""Supools are the biggest creatures on Dax. They all live in the oceans and ""","""live in the oceans""","""text""","""same""",-99,"""all""",-99,"""Supools""","""uninterrupted"""
1,3412,"""filler""","""supools""","""live for a very long time""",16,1,"""all of them live for a very long time. In the mornings, they like to play in the open ocean, and in the ""","""live in the oceans""","""text""","""same""",-99,"""all""",-99,"""Supools""","""uninterrupted"""
1,1479,"""filler""","""supools""","""live for a very long time""",16,2,"""evenings, they come closer to the shore.""","""live in the oceans""","""text""","""same""",-99,"""all""",-99,"""Supools""","""uninterrupted"""
1,4272,"""filler""","""supools""","""live for a very long time""",16,3,"""""","""live in the oceans""","""query""","""reverse""",1,"""all""",1,"""Supools""","""uninterrupted"""
1,2712,"""critical""","""glippets""","""live on the continent of Este""",17,0,"""Glippets are large creatures, quite intelligent, with a life-span of about ""","""live on the continent of Caro""","""text""","""reverse""",-99,"""generic""",-99,"""Glippets""","""uninterrupted_irrelevant"""
1,2767,"""critical""","""glippets""","""live on the continent of Este""",17,1,"""sixty years. They live on the southern continent of Caro""","""live on the continent of Caro""","""text""","""reverse""",-99,"""generic""",-99,"""Glippets""","""uninterrupted_irrelevant"""
1,1184,"""critical""","""glippets""","""live on the continent of Este""",17,2,"""and enjoy the sunshine there.""","""live on the continent of Caro""","""text""","""reverse""",-99,"""generic""",-99,"""Glippets""","""uninterrupted_irrelevant"""
1,7383,"""critical""","""glippets""","""live on the continent of Este""",17,3,"""""","""live on the continent of Caro""","""query""","""reverse""",0.01,"""generic""",0.98,"""Glippets""","""uninterrupted_irrelevant"""
2,3789,"""critical""","""isooms""","""produce fruit with smooth skin""",0,0,"""Isooms are tree-like plants that are found in hilly regions of Fale. Their fruit is edible, and the aliens often ""","""produce fruit with bumpy skin""","""text""",NA,-99,"""generic""",-99,"""Isooms""","""uninterrupted"""
2,2016,"""critical""","""isooms""","""produce fruit with smooth skin""",0,1,"""cultivate isooms for food. Isooms produce fruit with bumpy skin ""","""produce fruit with bumpy skin""","""text""",NA,-99,"""generic""",-99,"""Isooms""","""uninterrupted"""
2,1348,"""critical""","""isooms""","""produce fruit with smooth skin""",0,2,"""and fruit with smooth skin.""","""produce fruit with bumpy skin""","""text""",NA,-99,"""generic""",-99,"""Isooms""","""uninterrupted"""
2,5616,"""critical""","""isooms""","""produce fruit with smooth skin""",0,3,"""""","""produce fruit with bumpy skin""","""query""","""reverse""",0.69,"""generic""",0.29,"""Isooms""","""uninterrupted"""
2,3011,"""filler""","""aliens""","""admire Wint""",1,0,"""Wint lived a long time ago in the mountains. He loved to travel, and ""","""remember Wint""","""text""","""reverse""",-99,"""all""",-99,"""Wint of the Mountains""","""uninterrupted"""
2,1629,"""filler""","""aliens""","""admire Wint""",1,1,"""would often go as far as the oceans. But all aliens remember Wint and ""","""remember Wint""","""text""","""reverse""",-99,"""all""",-99,"""Wint of the Mountains""","""uninterrupted"""
2,1824,"""filler""","""aliens""","""admire Wint""",1,2,"""admire him because he was the one that found the lost city of Baff.""","""remember Wint""","""text""","""reverse""",-99,"""all""",-99,"""Wint of the Mountains""","""uninterrupted"""
2,8387,"""filler""","""aliens""","""admire Wint""",1,3,"""""","""remember Wint""","""query""","""reverse""",0.35,"""all""",0.42,"""Wint of the Mountains""","""uninterrupted"""
2,1781,"""critical""","""glippets""","""live on the continent of Este""",2,0,"""Glippets are large creatures, quite intelligent, with a life-span of about ""","""live on the continent of Caro""","""text""","""reverse""",-99,"""generic""",-99,"""Glippets""","""uninterrupted"""
2,1455,"""critical""","""glippets""","""live on the continent of Este""",2,1,"""sixty years. They live on the southern continent of Caro""","""live on the continent of Caro""","""text""","""reverse""",-99,"""generic""",-99,"""Glippets""","""uninterrupted"""
2,956,"""critical""","""glippets""","""live on the continent of Este""",2,2,"""and on the northern continent of Este.""","""live on the continent of Caro""","""text""","""reverse""",-99,"""generic""",-99,"""Glippets""","""uninterrupted"""
2,13268,"""critical""","""glippets""","""live on the continent of Este""",2,3,"""""","""live on the continent of Caro""","""query""","""same""",0.75,"""generic""",0.23,"""Glippets""","""uninterrupted"""
2,2697,"""critical""","""fengnor mated pairs""","""build nests in droops""",3,0,"""Fengnors are smaller, nocturnal creatures. They often hide under the leaves of short trees to avoid ""","""build nests in gluers""","""text""","""same""",-99,"""generic""",-99,"""Fengnors""","""uninterrupted_irrelevant"""
2,1414,"""critical""","""fengnor mated pairs""","""build nests in droops""",3,1,"""being seen by larger predators. They scrape the bark off trees to eat. They have highly complex""","""build nests in gluers""","""text""","""same""",-99,"""generic""",-99,"""Fengnors""","""uninterrupted_irrelevant"""
2,1334,"""critical""","""fengnor mated pairs""","""build nests in droops""",3,2,"""mating habits. They mate for life, and the males often bring twigs and leaves to the females during""","""build nests in gluers""","""text""","""same""",-99,"""generic""",-99,"""Fengnors""","""uninterrupted_irrelevant"""
2,1237,"""critical""","""fengnor mated pairs""","""build nests in droops""",3,3,"""courtship. The mated pairs use these twigs and leaves to build their quite elaborate nests in gluers""","""build nests in gluers""","""text""","""same""",-99,"""generic""",-99,"""Fengnors""","""uninterrupted_irrelevant"""
2,1165,"""critical""","""fengnor mated pairs""","""build nests in droops""",3,4,"""and watch over them carefully.""","""build nests in gluers""","""text""","""same""",-99,"""generic""",-99,"""Fengnors""","""uninterrupted_irrelevant"""
2,8232,"""critical""","""fengnor mated pairs""","""build nests in droops""",3,5,"""""","""build nests in gluers""","""query""","""reverse""",0.33,"""generic""",0.59,"""Fengnors""","""uninterrupted_irrelevant"""
2,2152,"""filler""","""Astom aliens""","""live in the residential quarter""",4,0,"""Zorf the mapmaker lives in the large forest city of Astom. In Astom, there are many ways to get""","""use the tunnels to get around town""","""text""","""reverse""",-99,"""all""",-99,"""Zorf the mapmaker""","""uninterrupted"""
2,3059,"""filler""","""Astom aliens""","""live in the residential quarter""",4,1,"""from place to place, but the most popular way is through tunnels. All of the Astom aliens use the tunnels""","""use the tunnels to get around town""","""text""","""reverse""",-99,"""all""",-99,"""Zorf the mapmaker""","""uninterrupted"""
2,1857,"""filler""","""Astom aliens""","""live in the residential quarter""",4,2,"""to get around town from their homes in the residential quarter.""","""use the tunnels to get around town""","""text""","""reverse""",-99,"""all""",-99,"""Zorf the mapmaker""","""uninterrupted"""
2,8939,"""filler""","""Astom aliens""","""live in the residential quarter""",4,3,"""""","""use the tunnels to get around town""","""query""","""reverse""",0.78,"""all""",0.73,"""Zorf the mapmaker""","""uninterrupted"""
2,2972,"""critical""","""kweps""","""chew on tunkel""",5,0,"""Kweps hunt in packs. Even though they are pack animals, all of them have highly idiosyncractic food ""","""chew on xorfun""","""text""","""reverse""",-99,"""generic""",-99,"""Kweps""","""uninterrupted"""
2,2964,"""critical""","""kweps""","""chew on tunkel""",5,1,"""preferences and behaviors. Some of them like to eat apples and others like to eat oranges. When they go ""","""chew on xorfun""","""text""","""reverse""",-99,"""generic""",-99,"""Kweps""","""uninterrupted"""
2,3050,"""critical""","""kweps""","""chew on tunkel""",5,2,"""hunting at night they look for creatures sleeping alone, not in groups. Right before they go hunting, the kweps chew on xorfun""","""chew on xorfun""","""text""","""reverse""",-99,"""generic""",-99,"""Kweps""","""uninterrupted"""
2,988,"""critical""","""kweps""","""chew on tunkel""",5,3,"""and on tunkel.""","""chew on xorfun""","""text""","""reverse""",-99,"""generic""",-99,"""Kweps""","""uninterrupted"""
2,7796,"""critical""","""kweps""","""chew on tunkel""",5,4,"""""","""chew on xorfun""","""query""","""same""",0.83,"""generic""",0.84,"""Kweps""","""uninterrupted"""
2,6192,"""critical""","""Krens""","""are fishermen""",6,0,"""Krens are a tribe of the aliens that live on the continent of Benli, which has no agriculture. Like most ""","""are stup-herders""","""text""","""same""",-99,"""generic""",-99,"""Finding food""","""uninterrupted_irrelevant"""
2,1630,"""critical""","""Krens""","""are fishermen""",6,1,"""creatures on Dax, Krens eat other creatures to survive. Animals like stups, four-legged creatures with ""","""are stup-herders""","""text""","""same""",-99,"""generic""",-99,"""Finding food""","""uninterrupted_irrelevant"""
2,29582,"""critical""","""Krens""","""are fishermen""",6,2,"""large antlers, are a resource for the Krens. Stups roam all over the windy highlands of Dax, far from the oceans. Krens are stup-herders""","""are stup-herders""","""text""","""same""",-99,"""generic""",-99,"""Finding food""","""uninterrupted_irrelevant"""
2,949,"""critical""","""Krens""","""are fishermen""",6,3,"""and incorporate stups into their religion.""","""are stup-herders""","""text""","""same""",-99,"""generic""",-99,"""Finding food""","""uninterrupted_irrelevant"""
2,2897,"""critical""","""Krens""","""are fishermen""",6,4,"""""","""are stup-herders""","""query""","""reverse""",0.56,"""generic""",0.47,"""Finding food""","""uninterrupted_irrelevant"""
2,11001,"""filler""","""supools""","""live for a very long time""",7,0,"""Supools are the biggest creatures on Dax. They all live in the oceans and ""","""live in the oceans""","""text""","""reverse""",-99,"""all""",-99,"""Supools""","""uninterrupted"""
2,7860,"""filler""","""supools""","""live for a very long time""",7,1,"""all of them live for a very long time. In the mornings, they like to play in the open ocean, and in the ""","""live in the oceans""","""text""","""reverse""",-99,"""all""",-99,"""Supools""","""uninterrupted"""
2,1534,"""filler""","""supools""","""live for a very long time""",7,2,"""evenings, they come closer to the shore.""","""live in the oceans""","""text""","""reverse""",-99,"""all""",-99,"""Supools""","""uninterrupted"""
2,5525,"""filler""","""supools""","""live for a very long time""",7,3,"""""","""live in the oceans""","""query""","""reverse""",0.7,"""all""",0.52,"""Supools""","""uninterrupted"""
2,2080,"""critical""","""aliens""","""ascribe to the Daith religion""",8,0,"""The aliens are the most intelligent creatures on Dax. They live on all ""","""ascribe to the Caboo religion""","""text""","""reverse""",-99,"""generic""",-99,"""Customs and religion""","""uninterrupted_irrelevant"""
2,2127,"""critical""","""aliens""","""ascribe to the Daith religion""",8,1,"""of the seven continents, and all of them are highly spiritual. They ascribe to the Caboo religion""","""ascribe to the Caboo religion""","""text""","""reverse""",-99,"""generic""",-99,"""Customs and religion""","""uninterrupted_irrelevant"""
2,1310,"""critical""","""aliens""","""ascribe to the Daith religion""",8,2,"""and follow a strict code of laws.""","""ascribe to the Caboo religion""","""text""","""reverse""",-99,"""generic""",-99,"""Customs and religion""","""uninterrupted_irrelevant"""
2,4223,"""critical""","""aliens""","""ascribe to the Daith religion""",8,3,"""""","""ascribe to the Caboo religion""","""query""","""reverse""",0.26,"""generic""",0.74,"""Customs and religion""","""uninterrupted_irrelevant"""
2,1728,"""filler""","""wopis""","""are very hard to find""",9,0,"""Wopis are extremely rare creatures. They only live in the desert and ""","""live in the desert""","""text""","""reverse""",-99,"""all""",-99,"""Wopis""","""uninterrupted"""
2,1757,"""filler""","""wopis""","""are very hard to find""",9,1,"""they all are very hard to find. Wopis sleep during the day to avoid ""","""live in the desert""","""text""","""reverse""",-99,"""all""",-99,"""Wopis""","""uninterrupted"""
2,949,"""filler""","""wopis""","""are very hard to find""",9,2,"""the heat, and look for food at night when it&quotechars cool.""","""live in the desert""","""text""","""reverse""",-99,"""all""",-99,"""Wopis""","""uninterrupted"""
2,4592,"""filler""","""wopis""","""are very hard to find""",9,3,"""""","""live in the desert""","""query""","""reverse""",0.93,"""all""",0.86,"""Wopis""","""uninterrupted"""
2,2555,"""critical""","""batozes""","""have seven wings""",10,0,"""Batozes are large birds that are found along all the coasts of Dax. They are skilled hunters and ""","""have six wings""","""text""","""reverse""",-99,"""generic""",-99,"""Batozes""","""uninterrupted"""
2,4141,"""critical""","""batozes""","""have seven wings""",10,1,"""can fly for whole days without stopping. They use their sharp claws to hunt for fish. They also ""","""have six wings""","""text""","""reverse""",-99,"""generic""",-99,"""Batozes""","""uninterrupted"""
2,1925,"""critical""","""batozes""","""have seven wings""",10,2,"""have special wings that are light but powerful. Batozes have six wings ""","""have six wings""","""text""","""reverse""",-99,"""generic""",-99,"""Batozes""","""uninterrupted"""
2,1167,"""critical""","""batozes""","""have seven wings""",10,3,"""and seven wings.""","""have six wings""","""text""","""reverse""",-99,"""generic""",-99,"""Batozes""","""uninterrupted"""
2,4583,"""critical""","""batozes""","""have seven wings""",10,4,"""""","""have six wings""","""query""","""same""",0.5,"""generic""",0.5,"""Batozes""","""uninterrupted"""
2,3893,"""critical""","""oller families""","""carry their young in trullets""",11,0,"""Ollers spend most of their lives in water, but occasionally come on land to gather berries. Ollers use tools on land but have a difficult ""","""carry their young in guklags""","""text""","""same""",-99,"""generic""",-99,"""Ollers""","""uninterrupted_irrelevant"""
2,1727,"""critical""","""oller families""","""carry their young in trullets""",11,1,"""time making them. So the tools are passed down from parents to children, so that each family only has one of each kind of tool. Baby ""","""carry their young in guklags""","""text""","""same""",-99,"""generic""",-99,"""Ollers""","""uninterrupted_irrelevant"""
2,40371,"""critical""","""oller families""","""carry their young in trullets""",11,2,"""ollers find it very exciting to be on land, but they have trouble walking and need to be carried by members of their families. While on land, ollers carry their young in guklags""","""carry their young in guklags""","""text""","""same""",-99,"""generic""",-99,"""Ollers""","""uninterrupted_irrelevant"""
2,1228,"""critical""","""oller families""","""carry their young in trullets""",11,3,"""and are very protective.""","""carry their young in guklags""","""text""","""same""",-99,"""generic""",-99,"""Ollers""","""uninterrupted_irrelevant"""
2,3381,"""critical""","""oller families""","""carry their young in trullets""",11,4,"""""","""carry their young in guklags""","""query""","""reverse""",0.64,"""generic""",0.49,"""Ollers""","""uninterrupted_irrelevant"""
2,2144,"""filler""","""mupors""","""enlarge their rebos in the spring""",12,0,"""Mupors are very social creatures. They live in extended family groups ""","""build large triangular rebos""","""text""","""reverse""",-99,"""most""",-99,"""Mupors""","""uninterrupted"""
2,1500,"""filler""","""mupors""","""enlarge their rebos in the spring""",12,1,"""consisting of multiple generations. Most of them build large triangular ""","""build large triangular rebos""","""text""","""reverse""",-99,"""most""",-99,"""Mupors""","""uninterrupted"""
2,2497,"""filler""","""mupors""","""enlarge their rebos in the spring""",12,2,"""rebos made of clay and grass, and most of them enlarge their rebos in the spring.""","""build large triangular rebos""","""text""","""reverse""",-99,"""most""",-99,"""Mupors""","""uninterrupted"""
2,5423,"""filler""","""mupors""","""enlarge their rebos in the spring""",12,3,"""""","""build large triangular rebos""","""query""","""same""",0.7,"""most""",0.39,"""Mupors""","""uninterrupted"""
2,2047,"""critical""","""kaples""","""have spotted fur""",13,0,"""Kaples are small animals that live in the jungles. They are most active ""","""have striped fur""","""text""","""same""",-99,"""generic""",-99,"""Kaples""","""uninterrupted_irrelevant"""
2,1709,"""critical""","""kaples""","""have spotted fur""",13,1,"""at dawn and at dusk, when their usual predators are less active. Their thick fur helps camouflage ""","""have striped fur""","""text""","""same""",-99,"""generic""",-99,"""Kaples""","""uninterrupted_irrelevant"""
2,1245,"""critical""","""kaples""","""have spotted fur""",13,2,"""them among the plants on the forest floor. Kaples have striped fur ""","""have striped fur""","""text""","""same""",-99,"""generic""",-99,"""Kaples""","""uninterrupted_irrelevant"""
2,1052,"""critical""","""kaples""","""have spotted fur""",13,3,"""and long tails.""","""have striped fur""","""text""","""same""",-99,"""generic""",-99,"""Kaples""","""uninterrupted_irrelevant"""
2,5371,"""critical""","""kaples""","""have spotted fur""",13,4,"""""","""have striped fur""","""query""","""reverse""",0.1,"""generic""",0.87,"""Kaples""","""uninterrupted_irrelevant"""
2,3590,"""critical""","""basket weavers""","""are part of the Farza guild""",14,0,"""The aliens have many different kinds of specialized skills and trades, such as basket weaving. Crafters are found all over Dax, but ""","""are part of the Tinno guild""","""text""","""reverse""",-99,"""generic""",-99,"""Crafts""","""uninterrupted"""
2,2077,"""critical""","""basket weavers""","""are part of the Farza guild""",14,1,"""they are especially common in the city of Rondoo, where aliens from all over go to buy luxury goods. To ""","""are part of the Tinno guild""","""text""","""reverse""",-99,"""generic""",-99,"""Crafts""","""uninterrupted"""
2,2714,"""critical""","""basket weavers""","""are part of the Farza guild""",14,2,"""help make themselves known, crafters join guilds with other crafters of the same trade. Basket weavers are part of the Tinno guild ""","""are part of the Tinno guild""","""text""","""reverse""",-99,"""generic""",-99,"""Crafts""","""uninterrupted"""
2,972,"""critical""","""basket weavers""","""are part of the Farza guild""",14,3,"""and the Farza guild.""","""are part of the Tinno guild""","""text""","""reverse""",-99,"""generic""",-99,"""Crafts""","""uninterrupted"""
2,5206,"""critical""","""basket weavers""","""are part of the Farza guild""",14,4,"""""","""are part of the Tinno guild""","""query""","""reverse""",0.5,"""generic""",0.5,"""Crafts""","""uninterrupted"""
2,3187,"""critical""","""vimble queens""","""hibernate in the abandoned burrows of other animals""",15,0,"""Vimbles are social insects that live in colonies of up to a thousand individuals. Vimbles live for a year ""","""hibernate in fallen logs""","""text""","""reverse""",-99,"""generic""",-99,"""Vimbles""","""uninterrupted_irrelevant"""
2,1973,"""critical""","""vimble queens""","""hibernate in the abandoned burrows of other animals""",15,1,"""or less. They have a single queen, who must find somewhere to hibernate over the winter before ""","""hibernate in fallen logs""","""text""","""reverse""",-99,"""generic""",-99,"""Vimbles""","""uninterrupted_irrelevant"""
2,2192,"""critical""","""vimble queens""","""hibernate in the abandoned burrows of other animals""",15,2,"""starting a new colony. Vimble queens hibernate in fallen logs  ""","""hibernate in fallen logs""","""text""","""reverse""",-99,"""generic""",-99,"""Vimbles""","""uninterrupted_irrelevant"""
2,1086,"""critical""","""vimble queens""","""hibernate in the abandoned burrows of other animals""",15,3,"""and only emerge when the weather has become warmer.""","""hibernate in fallen logs""","""text""","""reverse""",-99,"""generic""",-99,"""Vimbles""","""uninterrupted_irrelevant"""
2,6398,"""critical""","""vimble queens""","""hibernate in the abandoned burrows of other animals""",15,4,"""""","""hibernate in fallen logs""","""query""","""reverse""",0.17,"""generic""",0.78,"""Vimbles""","""uninterrupted_irrelevant"""
2,2064,"""filler""","""aliens""","""are provided for by Zorxon""",16,0,"""Zorxon is the overlord of Dax.  Everyone loves Zorxon because she ""","""love Zorxon""","""text""","""reverse""",-99,"""all""",-99,"""Zorxon, overlord of Dax""","""uninterrupted"""
2,1619,"""filler""","""aliens""","""are provided for by Zorxon""",16,1,"""provides for all the aliens of Dax. However, Zorxon is now very old ""","""love Zorxon""","""text""","""reverse""",-99,"""all""",-99,"""Zorxon, overlord of Dax""","""uninterrupted"""
2,2585,"""filler""","""aliens""","""are provided for by Zorxon""",16,2,"""and she rarely makes public appearances anymore. Still, she is very influential.""","""love Zorxon""","""text""","""reverse""",-99,"""all""",-99,"""Zorxon, overlord of Dax""","""uninterrupted"""
2,6004,"""filler""","""aliens""","""are provided for by Zorxon""",16,3,"""""","""love Zorxon""","""query""","""same""",0.41,"""all""",0.59,"""Zorxon, overlord of Dax""","""uninterrupted"""
2,2630,"""critical""","""reesles""","""wear krevnors around their heads""",17,0,"""Reesles are strange, furry creatures, often found in the homes of the aliens. They are not house pets ""","""wear wutsats around their heads""","""text""","""same""",-99,"""generic""",-99,"""Reesles""","""uninterrupted"""
2,2706,"""critical""","""reesles""","""wear krevnors around their heads""",17,1,"""but quasi-domensticated animals. They will steal food from you if you are not paying attention. They have""","""wear wutsats around their heads""","""text""","""same""",-99,"""generic""",-99,"""Reesles""","""uninterrupted"""
2,2703,"""critical""","""reesles""","""wear krevnors around their heads""",17,2,"""special headgear to help other aliens identify their owners. Around their heads, they wear giant wutsats""","""wear wutsats around their heads""","""text""","""same""",-99,"""generic""",-99,"""Reesles""","""uninterrupted"""
2,1061,"""critical""","""reesles""","""wear krevnors around their heads""",17,3,"""and krevnors.""","""wear wutsats around their heads""","""text""","""same""",-99,"""generic""",-99,"""Reesles""","""uninterrupted"""
2,20876,"""critical""","""reesles""","""wear krevnors around their heads""",17,4,"""""","""wear wutsats around their heads""","""query""","""same""",0.54,"""generic""",0.46,"""Reesles""","""uninterrupted"""
3,3072,"""critical""","""reesles""","""wear krevnors around their heads""",0,0,"""Reesles are strange, furry creatures, often found in the homes of the aliens. They are not house pets ""","""wear wutsats around their heads""","""text""",NA,-99,"""generic""",-99,"""Reesles""","""uninterrupted"""
3,1155,"""critical""","""reesles""","""wear krevnors around their heads""",0,1,"""but quasi-domensticated animals. They will steal food from you if you are not paying attention. They have""","""wear wutsats around their heads""","""text""",NA,-99,"""generic""",-99,"""Reesles""","""uninterrupted"""
3,436,"""critical""","""reesles""","""wear krevnors around their heads""",0,2,"""special headgear to help other aliens identify their owners. Around their heads, they wear giant wutsats""","""wear wutsats around their heads""","""text""",NA,-99,"""generic""",-99,"""Reesles""","""uninterrupted"""
3,1067,"""critical""","""reesles""","""wear krevnors around their heads""",0,3,"""and krevnors.""","""wear wutsats around their heads""","""text""",NA,-99,"""generic""",-99,"""Reesles""","""uninterrupted"""
3,7519,"""critical""","""reesles""","""wear krevnors around their heads""",0,4,"""""","""wear wutsats around their heads""","""query""","""same""",0.38,"""generic""",0.6,"""Reesles""","""uninterrupted"""
3,6210,"""filler""","""Astom aliens""","""live in the residential quarter""",1,0,"""Zorf the mapmaker lives in the large forest city of Astom. In Astom, there are many ways to get""","""use the tunnels to get around town""","""text""","""same""",-99,"""all""",-99,"""Zorf the mapmaker""","""uninterrupted"""
3,2665,"""filler""","""Astom aliens""","""live in the residential quarter""",1,1,"""from place to place, but the most popular way is through tunnels. All of the Astom aliens use the tunnels""","""use the tunnels to get around town""","""text""","""same""",-99,"""all""",-99,"""Zorf the mapmaker""","""uninterrupted"""
3,1978,"""filler""","""Astom aliens""","""live in the residential quarter""",1,2,"""to get around town from their homes in the residential quarter.""","""use the tunnels to get around town""","""text""","""same""",-99,"""all""",-99,"""Zorf the mapmaker""","""uninterrupted"""
3,19467,"""filler""","""Astom aliens""","""live in the residential quarter""",1,3,"""""","""use the tunnels to get around town""","""query""","""same""",0.96,"""all""",0.87,"""Zorf the mapmaker""","""uninterrupted"""
3,3484,"""critical""","""isooms""","""produce fruit with smooth skin""",2,0,"""Isooms are tree-like plants that are found in hilly regions of Fale. Their fruit is edible, and the aliens often ""","""produce fruit with bumpy skin""","""text""","""same""",-99,"""generic""",-99,"""Isooms""","""uninterrupted"""
3,2113,"""critical""","""isooms""","""produce fruit with smooth skin""",2,1,"""cultivate isooms for food. Isooms produce fruit with bumpy skin ""","""produce fruit with bumpy skin""","""text""","""same""",-99,"""generic""",-99,"""Isooms""","""uninterrupted"""
3,1658,"""critical""","""isooms""","""produce fruit with smooth skin""",2,2,"""and fruit with smooth skin.""","""produce fruit with bumpy skin""","""text""","""same""",-99,"""generic""",-99,"""Isooms""","""uninterrupted"""
3,28719,"""critical""","""isooms""","""produce fruit with smooth skin""",2,3,"""""","""produce fruit with bumpy skin""","""query""","""reverse""",0.58,"""generic""",0.5,"""Isooms""","""uninterrupted"""
3,6424,"""critical""","""landeks""","""have seven horns""",3,0,"""Landeks are very fierce creatures. When the aliens encounter landeks in the wild, they usually run away ""","""have four horns""","""text""","""reverse""",-99,"""generic""",-99,"""Landeks""","""uninterrupted_irrelevant"""
3,7009,"""critical""","""landeks""","""have seven horns""",3,1,"""quickly. Landeks often fight with each other over territory, food, or mates. They fight using the long horns on their heads and on their ""","""have four horns""","""text""","""reverse""",-99,"""generic""",-99,"""Landeks""","""uninterrupted_irrelevant"""
3,2114,"""critical""","""landeks""","""have seven horns""",3,2,"""backs. Landeks have four horns ""","""have four horns""","""text""","""reverse""",-99,"""generic""",-99,"""Landeks""","""uninterrupted_irrelevant"""
3,3641,"""critical""","""landeks""","""have seven horns""",3,3,"""and two tails.""","""have four horns""","""text""","""reverse""",-99,"""generic""",-99,"""Landeks""","""uninterrupted_irrelevant"""
3,23509,"""critical""","""landeks""","""have seven horns""",3,4,"""""","""have four horns""","""query""","""reverse""",0,"""generic""",0.99,"""Landeks""","""uninterrupted_irrelevant"""
3,4510,"""filler""","""blins""","""fly""",4,0,"""Blins are small creatures. They all have hollow bones and fly. They sing beautiful songs to attract mates""","""have hollow bones""","""text""","""reverse""",-99,"""all""",-99,"""Blins""","""uninterrupted"""
3,5912,"""filler""","""blins""","""fly""",4,1,"""and distract their enemies when they attack.""","""have hollow bones""","""text""","""reverse""",-99,"""all""",-99,"""Blins""","""uninterrupted"""
3,18115,"""filler""","""blins""","""fly""",4,2,"""""","""have hollow bones""","""query""","""reverse""",1,"""all""",1,"""Blins""","""uninterrupted"""
3,3928,"""critical""","""kaples""","""have spotted fur""",5,0,"""Kaples are small animals that live in the jungles. They are most active ""","""have striped fur""","""text""","""reverse""",-99,"""generic""",-99,"""Kaples""","""uninterrupted"""
3,2173,"""critical""","""kaples""","""have spotted fur""",5,1,"""at dawn and at dusk, when their usual predators are less active. Their thick fur helps camouflage ""","""have striped fur""","""text""","""reverse""",-99,"""generic""",-99,"""Kaples""","""uninterrupted"""
3,7295,"""critical""","""kaples""","""have spotted fur""",5,2,"""them among the plants on the forest floor. Kaples have striped fur ""","""have striped fur""","""text""","""reverse""",-99,"""generic""",-99,"""Kaples""","""uninterrupted"""
3,2556,"""critical""","""kaples""","""have spotted fur""",5,3,"""and spotted fur.""","""have striped fur""","""text""","""reverse""",-99,"""generic""",-99,"""Kaples""","""uninterrupted"""
3,14360,"""critical""","""kaples""","""have spotted fur""",5,4,"""""","""have striped fur""","""query""","""reverse""",0.5,"""generic""",0.5,"""Kaples""","""uninterrupted"""
3,8448,"""critical""","""oller families""","""carry their young in trullets""",6,0,"""Ollers spend most of their lives in water, but occasionally come on land to gather berries. Ollers use tools on land but have a difficult ""","""carry their young in guklags""","""text""","""reverse""",-99,"""generic""",-99,"""Ollers""","""uninterrupted_irrelevant"""
3,5528,"""critical""","""oller families""","""carry their young in trullets""",6,1,"""time making them. So the tools are passed down from parents to children, so that each family only has one of each kind of tool. Baby ""","""carry their young in guklags""","""text""","""reverse""",-99,"""generic""",-99,"""Ollers""","""uninterrupted_irrelevant"""
3,3414,"""critical""","""oller families""","""carry their young in trullets""",6,2,"""ollers find it very exciting to be on land, but they have trouble walking and need to be carried by members of their families. While on land, ollers carry their young in guklags""","""carry their young in guklags""","""text""","""reverse""",-99,"""generic""",-99,"""Ollers""","""uninterrupted_irrelevant"""
3,2699,"""critical""","""oller families""","""carry their young in trullets""",6,3,"""and are very protective.""","""carry their young in guklags""","""text""","""reverse""",-99,"""generic""",-99,"""Ollers""","""uninterrupted_irrelevant"""
3,32984,"""critical""","""oller families""","""carry their young in trullets""",6,4,"""""","""carry their young in guklags""","""query""","""same""",0.26,"""generic""",0.82,"""Ollers""","""uninterrupted_irrelevant"""
3,5887,"""filler""","""wopis""","""are very hard to find""",7,0,"""Wopis are extremely rare creatures. They only live in the desert and ""","""live in the desert""","""text""","""same""",-99,"""all""",-99,"""Wopis""","""uninterrupted"""
3,4928,"""filler""","""wopis""","""are very hard to find""",7,1,"""they all are very hard to find. Wopis sleep during the day to avoid ""","""live in the desert""","""text""","""same""",-99,"""all""",-99,"""Wopis""","""uninterrupted"""
3,3432,"""filler""","""wopis""","""are very hard to find""",7,2,"""the heat, and look for food at night when it&quotechars cool.""","""live in the desert""","""text""","""same""",-99,"""all""",-99,"""Wopis""","""uninterrupted"""
3,11446,"""filler""","""wopis""","""are very hard to find""",7,3,"""""","""live in the desert""","""query""","""same""",1,"""all""",1,"""Wopis""","""uninterrupted"""
3,4228,"""critical""","""aliens""","""ascribe to the Daith religion""",8,0,"""The aliens are the most intelligent creatures on Dax. They live on all ""","""ascribe to the Caboo religion""","""text""","""same""",-99,"""generic""",-99,"""Customs and religion""","""uninterrupted_irrelevant"""
3,7060,"""critical""","""aliens""","""ascribe to the Daith religion""",8,1,"""of the seven continents, and all of them are highly spiritual. They ascribe to the Caboo religion""","""ascribe to the Caboo religion""","""text""","""same""",-99,"""generic""",-99,"""Customs and religion""","""uninterrupted_irrelevant"""
3,8483,"""critical""","""aliens""","""ascribe to the Daith religion""",8,2,"""and follow a strict code of laws.""","""ascribe to the Caboo religion""","""text""","""same""",-99,"""generic""",-99,"""Customs and religion""","""uninterrupted_irrelevant"""
3,23367,"""critical""","""aliens""","""ascribe to the Daith religion""",8,3,"""""","""ascribe to the Caboo religion""","""query""","""same""",0,"""generic""",0.99,"""Customs and religion""","""uninterrupted_irrelevant"""
3,11614,"""filler""","""plovs""",NA,9,0,"""Plovs travel in herds and are very territorial. They used to live in the continent of Aga, but in recent""","""are attacked by other creatures""","""text""","""same""",-99,"""none""",-99,"""Plovs""","""uninterrupted"""
3,10179,"""filler""","""plovs""",NA,9,1,"""years they all have migrated to the continent Caro. When they migrated to Caro, they intruded upon the territory of other ""","""are attacked by other creatures""","""text""","""same""",-99,"""none""",-99,"""Plovs""","""uninterrupted"""
3,2655,"""filler""","""plovs""",NA,9,2,"""creatures and struggled to find a new home. Now, they live quite happily near the water and are ""","""are attacked by other creatures""","""text""","""same""",-99,"""none""",-99,"""Plovs""","""uninterrupted"""
3,1270,"""filler""","""plovs""",NA,9,3,"""never attacked by other creatures.""","""are attacked by other creatures""","""text""","""same""",-99,"""none""",-99,"""Plovs""","""uninterrupted"""
3,8623,"""filler""","""plovs""",NA,9,4,"""""","""are attacked by other creatures""","""query""","""same""",0.02,"""none""",0,"""Plovs""","""uninterrupted"""
3,4684,"""critical""","""basket weavers""","""are part of the Farza guild""",10,0,"""The aliens have many different kinds of specialized skills and trades, such as basket weaving. Crafters are found all over Dax, but ""","""are part of the Tinno guild""","""text""","""same""",-99,"""generic""",-99,"""Crafts""","""uninterrupted"""
3,3861,"""critical""","""basket weavers""","""are part of the Farza guild""",10,1,"""they are especially common in the city of Rondoo, where aliens from all over go to buy luxury goods. To ""","""are part of the Tinno guild""","""text""","""same""",-99,"""generic""",-99,"""Crafts""","""uninterrupted"""
3,3072,"""critical""","""basket weavers""","""are part of the Farza guild""",10,2,"""help make themselves known, crafters join guilds with other crafters of the same trade. Basket weavers are part of the Tinno guild ""","""are part of the Tinno guild""","""text""","""same""",-99,"""generic""",-99,"""Crafts""","""uninterrupted"""
3,819,"""critical""","""basket weavers""","""are part of the Farza guild""",10,3,"""and the Farza guild.""","""are part of the Tinno guild""","""text""","""same""",-99,"""generic""",-99,"""Crafts""","""uninterrupted"""
3,3292,"""critical""","""basket weavers""","""are part of the Farza guild""",10,4,"""""","""are part of the Tinno guild""","""query""","""reverse""",0.53,"""generic""",0.49,"""Crafts""","""uninterrupted"""
3,3820,"""critical""","""vimble queens""","""hibernate in the abandoned burrows of other animals""",11,0,"""Vimbles are social insects that live in colonies of up to a thousand individuals. Vimbles live for a year ""","""hibernate in fallen logs""","""text""","""reverse""",-99,"""generic""",-99,"""Vimbles""","""uninterrupted_irrelevant"""
3,3113,"""critical""","""vimble queens""","""hibernate in the abandoned burrows of other animals""",11,1,"""or less. They have a single queen, who must find somewhere to hibernate over the winter before ""","""hibernate in fallen logs""","""text""","""reverse""",-99,"""generic""",-99,"""Vimbles""","""uninterrupted_irrelevant"""
3,2708,"""critical""","""vimble queens""","""hibernate in the abandoned burrows of other animals""",11,2,"""starting a new colony. Vimble queens hibernate in fallen logs  ""","""hibernate in fallen logs""","""text""","""reverse""",-99,"""generic""",-99,"""Vimbles""","""uninterrupted_irrelevant"""
3,454,"""critical""","""vimble queens""","""hibernate in the abandoned burrows of other animals""",11,3,"""and only emerge when the weather has become warmer.""","""hibernate in fallen logs""","""text""","""reverse""",-99,"""generic""",-99,"""Vimbles""","""uninterrupted_irrelevant"""
3,8863,"""critical""","""vimble queens""","""hibernate in the abandoned burrows of other animals""",11,4,"""""","""hibernate in fallen logs""","""query""","""same""",0.05,"""generic""",0.95,"""Vimbles""","""uninterrupted_irrelevant"""
3,3379,"""filler""","""aliens""","""are provided for by Zorxon""",12,0,"""Zorxon is the overlord of Dax.  Everyone loves Zorxon because she ""","""love Zorxon""","""text""","""same""",-99,"""all""",-99,"""Zorxon, overlord of Dax""","""uninterrupted"""
3,2505,"""filler""","""aliens""","""are provided for by Zorxon""",12,1,"""provides for all the aliens of Dax. However, Zorxon is now very old ""","""love Zorxon""","""text""","""same""",-99,"""all""",-99,"""Zorxon, overlord of Dax""","""uninterrupted"""
3,1882,"""filler""","""aliens""","""are provided for by Zorxon""",12,2,"""and she rarely makes public appearances anymore. Still, she is very influential.""","""love Zorxon""","""text""","""same""",-99,"""all""",-99,"""Zorxon, overlord of Dax""","""uninterrupted"""
3,7546,"""filler""","""aliens""","""are provided for by Zorxon""",12,3,"""""","""love Zorxon""","""query""","""reverse""",0.88,"""all""",0.97,"""Zorxon, overlord of Dax""","""uninterrupted"""
3,4382,"""critical""","""batozes""","""have seven wings""",13,0,"""Batozes are large birds that are found along all the coasts of Dax. They are skilled hunters and ""","""have six wings""","""text""","""reverse""",-99,"""generic""",-99,"""Batozes""","""uninterrupted_irrelevant"""
3,2700,"""critical""","""batozes""","""have seven wings""",13,1,"""can fly for whole days without stopping. They use their sharp claws to hunt for fish. They also ""","""have six wings""","""text""","""reverse""",-99,"""generic""",-99,"""Batozes""","""uninterrupted_irrelevant"""
3,2094,"""critical""","""batozes""","""have seven wings""",13,2,"""have special wings that are light but powerful. Batozes have six wings ""","""have six wings""","""text""","""reverse""",-99,"""generic""",-99,"""Batozes""","""uninterrupted_irrelevant"""
3,948,"""critical""","""batozes""","""have seven wings""",13,3,"""and three eyes.""","""have six wings""","""text""","""reverse""",-99,"""generic""",-99,"""Batozes""","""uninterrupted_irrelevant"""
3,4687,"""critical""","""batozes""","""have seven wings""",13,4,"""""","""have six wings""","""query""","""reverse""",0,"""generic""",1,"""Batozes""","""uninterrupted_irrelevant"""
3,3692,"""critical""","""farmers in the springtime""","""burn their fields to plant soroneeks""",14,0,"""The soil on the continent of Aga is very fertile, and the aliens have learned to grow many crops. However, farmers only grow""","""flood their fields to plant fujusi""","""text""","""reverse""",-99,"""generic""",-99,"""Agriculture""","""uninterrupted"""
3,3259,"""critical""","""farmers in the springtime""","""burn their fields to plant soroneeks""",14,1,"""one type of crop to increase their profits when selling. Their farms are very big, often stretching ""","""flood their fields to plant fujusi""","""text""","""reverse""",-99,"""generic""",-99,"""Agriculture""","""uninterrupted"""
3,2788,"""critical""","""farmers in the springtime""","""burn their fields to plant soroneeks""",14,2,"""several miles in every direction. During the springtime, the aliens flood their fields to plant fujusi""","""flood their fields to plant fujusi""","""text""","""reverse""",-99,"""generic""",-99,"""Agriculture""","""uninterrupted"""
3,2788,"""critical""","""farmers in the springtime""","""burn their fields to plant soroneeks""",14,3,"""and burn their fields to plant soroneeks.""","""flood their fields to plant fujusi""","""text""","""reverse""",-99,"""generic""",-99,"""Agriculture""","""uninterrupted"""
3,13876,"""critical""","""farmers in the springtime""","""burn their fields to plant soroneeks""",14,4,"""""","""flood their fields to plant fujusi""","""query""","""reverse""",0.48,"""generic""",0.5,"""Agriculture""","""uninterrupted"""
3,3939,"""critical""","""Krens""","""are fishermen""",15,0,"""Krens are a tribe of the aliens that live on the continent of Benli, which has no agriculture. Like most ""","""are stup-herders""","""text""","""reverse""",-99,"""generic""",-99,"""Finding food""","""uninterrupted_irrelevant"""
3,5524,"""critical""","""Krens""","""are fishermen""",15,1,"""creatures on Dax, Krens eat other creatures to survive. Animals like stups, four-legged creatures with ""","""are stup-herders""","""text""","""reverse""",-99,"""generic""",-99,"""Finding food""","""uninterrupted_irrelevant"""
3,2748,"""critical""","""Krens""","""are fishermen""",15,2,"""large antlers, are a resource for the Krens. Stups roam all over the windy highlands of Dax, far from the oceans. Krens are stup-herders""","""are stup-herders""","""text""","""reverse""",-99,"""generic""",-99,"""Finding food""","""uninterrupted_irrelevant"""
3,1263,"""critical""","""Krens""","""are fishermen""",15,3,"""and incorporate stups into their religion.""","""are stup-herders""","""text""","""reverse""",-99,"""generic""",-99,"""Finding food""","""uninterrupted_irrelevant"""
3,5528,"""critical""","""Krens""","""are fishermen""",15,4,"""""","""are stup-herders""","""query""","""same""",0.04,"""generic""",0.76,"""Finding food""","""uninterrupted_irrelevant"""
3,3059,"""filler""","""aliens""","""tolerate apaffs to some extent""",16,0,"""Apaffs are a nuisance for the aliens. They make burrows everywhere""","""find apaffs cute""","""text""","""same""",-99,"""most""",-99,"""Apaffs""","""uninterrupted"""
3,2682,"""filler""","""aliens""","""tolerate apaffs to some extent""",16,1,"""including in the middle of farmland and in front of their houses. But most aliens find apaffs cute, ""","""find apaffs cute""","""text""","""same""",-99,"""most""",-99,"""Apaffs""","""uninterrupted"""
3,3592,"""filler""","""aliens""","""tolerate apaffs to some extent""",16,2,"""and tolerate them to some extent. Some aliens even like to keep them as pets.""","""find apaffs cute""","""text""","""same""",-99,"""most""",-99,"""Apaffs""","""uninterrupted"""
3,5585,"""filler""","""aliens""","""tolerate apaffs to some extent""",16,3,"""""","""find apaffs cute""","""query""","""same""",0.65,"""most""",0.62,"""Apaffs""","""uninterrupted"""
3,4395,"""critical""","""glippets""","""live on the continent of Este""",17,0,"""Glippets are large creatures, quite intelligent, with a life-span of about ""","""live on the continent of Caro""","""text""","""same""",-99,"""generic""",-99,"""Glippets""","""uninterrupted"""
3,1900,"""critical""","""glippets""","""live on the continent of Este""",17,1,"""sixty years. They live on the southern continent of Caro""","""live on the continent of Caro""","""text""","""same""",-99,"""generic""",-99,"""Glippets""","""uninterrupted"""
3,1022,"""critical""","""glippets""","""live on the continent of Este""",17,2,"""and on the northern continent of Este.""","""live on the continent of Caro""","""text""","""same""",-99,"""generic""",-99,"""Glippets""","""uninterrupted"""
3,8990,"""critical""","""glippets""","""live on the continent of Este""",17,3,"""""","""live on the continent of Caro""","""query""","""reverse""",0.49,"""generic""",0.5,"""Glippets""","""uninterrupted"""
4,15417,"""critical""","""kaples""","""have spotted fur""",0,0,"""Kaples are small animals that live in the jungles. They are most active ""","""have striped fur""","""text""",NA,-99,"""generic""",-99,"""Kaples""","""uninterrupted"""
4,3616,"""critical""","""kaples""","""have spotted fur""",0,1,"""at dawn and at dusk, when their usual predators are less active. Their thick fur helps camouflage ""","""have striped fur""","""text""",NA,-99,"""generic""",-99,"""Kaples""","""uninterrupted"""
4,3425,"""critical""","""kaples""","""have spotted fur""",0,2,"""them among the plants on the forest floor. Kaples have striped fur ""","""have striped fur""","""text""",NA,-99,"""generic""",-99,"""Kaples""","""uninterrupted"""
4,1513,"""critical""","""kaples""","""have spotted fur""",0,3,"""and spotted fur.""","""have striped fur""","""text""",NA,-99,"""generic""",-99,"""Kaples""","""uninterrupted"""
4,21611,"""critical""","""kaples""","""have spotted fur""",0,4,"""""","""have striped fur""","""query""","""reverse""",0.53,"""generic""",0.5,"""Kaples""","""uninterrupted"""
4,3700,"""filler""","""morseths""","""come on land to find mates""",1,0,"""The morseth is an animal that lives part of its life in the sea and part of its life on land. Most morseths ""","""build permanent structures called fendles""","""text""","""reverse""",-99,"""most""",-99,"""Morseths""","""uninterrupted"""
4,3646,"""filler""","""morseths""","""come on land to find mates""",1,1,"""come on land to find mates and to bury their dead. Most morseths build permanent structures called fendles in order to bury their dead ""","""build permanent structures called fendles""","""text""","""reverse""",-99,"""most""",-99,"""Morseths""","""uninterrupted"""
4,3386,"""filler""","""morseths""","""come on land to find mates""",1,2,"""kin, and fendles are usually made out of wood.""","""build permanent structures called fendles""","""text""","""reverse""",-99,"""most""",-99,"""Morseths""","""uninterrupted"""
4,37748,"""filler""","""morseths""","""come on land to find mates""",1,3,"""""","""build permanent structures called fendles""","""query""","""reverse""",0.76,"""most""",0.89,"""Morseths""","""uninterrupted"""
4,4634,"""critical""","""lorches""","""have short wings""",2,0,"""Lorches have massive beaks and are found on the continents of Dodi and Gomi. The two continents""","""have long wings""","""text""","""reverse""",-99,"""generic""",-99,"""Lorches""","""uninterrupted"""
4,3198,"""critical""","""lorches""","""have short wings""",2,1,"""are quite different in what kinds of animals are available for them to eat. Lorches have long wings ""","""have long wings""","""text""","""reverse""",-99,"""generic""",-99,"""Lorches""","""uninterrupted"""
4,1554,"""critical""","""lorches""","""have short wings""",2,2,"""and short wings.""","""have long wings""","""text""","""reverse""",-99,"""generic""",-99,"""Lorches""","""uninterrupted"""
4,8074,"""critical""","""lorches""","""have short wings""",2,3,"""""","""have long wings""","""query""","""same""",0.49,"""generic""",0.51,"""Lorches""","""uninterrupted"""
4,109568,"""critical""","""Krens""","""are fishermen""",3,0,"""Krens are a tribe of the aliens that live on the continent of Benli, which has no agriculture. Like most ""","""are stup-herders""","""text""","""same""",-99,"""generic""",-99,"""Finding food""","""uninterrupted_irrelevant"""
4,3365,"""critical""","""Krens""","""are fishermen""",3,1,"""creatures on Dax, Krens eat other creatures to survive. Animals like stups, four-legged creatures with ""","""are stup-herders""","""text""","""same""",-99,"""generic""",-99,"""Finding food""","""uninterrupted_irrelevant"""
4,3246,"""critical""","""Krens""","""are fishermen""",3,2,"""large antlers, are a resource for the Krens. Stups roam all over the windy highlands of Dax, far from the oceans. Krens are stup-herders""","""are stup-herders""","""text""","""same""",-99,"""generic""",-99,"""Finding food""","""uninterrupted_irrelevant"""
4,3002,"""critical""","""Krens""","""are fishermen""",3,3,"""and incorporate stups into their religion.""","""are stup-herders""","""text""","""same""",-99,"""generic""",-99,"""Finding food""","""uninterrupted_irrelevant"""
4,26297,"""critical""","""Krens""","""are fishermen""",3,4,"""""","""are stup-herders""","""query""","""same""",0,"""generic""",1,"""Finding food""","""uninterrupted_irrelevant"""
4,4690,"""filler""","""wopis""","""are very hard to find""",4,0,"""Wopis are extremely rare creatures. They only live in the desert and ""","""live in the desert""","""text""","""same""",-99,"""all""",-99,"""Wopis""","""uninterrupted"""
4,2838,"""filler""","""wopis""","""are very hard to find""",4,1,"""they all are very hard to find. Wopis sleep during the day to avoid ""","""live in the desert""","""text""","""same""",-99,"""all""",-99,"""Wopis""","""uninterrupted"""
4,3165,"""filler""","""wopis""","""are very hard to find""",4,2,"""the heat, and look for food at night when it&quotechars cool.""","""live in the desert""","""text""","""same""",-99,"""all""",-99,"""Wopis""","""uninterrupted"""
4,14370,"""filler""","""wopis""","""are very hard to find""",4,3,"""""","""live in the desert""","""query""","""reverse""",1,"""all""",1,"""Wopis""","""uninterrupted"""
4,4250,"""critical""","""aliens""","""ascribe to the Daith religion""",5,0,"""The aliens are the most intelligent creatures on Dax. They live on all ""","""ascribe to the Caboo religion""","""text""","""reverse""",-99,"""generic""",-99,"""Customs and religion""","""uninterrupted"""
4,3780,"""critical""","""aliens""","""ascribe to the Daith religion""",5,1,"""of the seven continents, and all of them are highly spiritual. They ascribe to the Caboo religion""","""ascribe to the Caboo religion""","""text""","""reverse""",-99,"""generic""",-99,"""Customs and religion""","""uninterrupted"""
4,1200,"""critical""","""aliens""","""ascribe to the Daith religion""",5,2,"""and the Daith religion.""","""ascribe to the Caboo religion""","""text""","""reverse""",-99,"""generic""",-99,"""Customs and religion""","""uninterrupted"""
4,8168,"""critical""","""aliens""","""ascribe to the Daith religion""",5,3,"""""","""ascribe to the Caboo religion""","""query""","""reverse""",0.5,"""generic""",0.5,"""Customs and religion""","""uninterrupted"""
4,5733,"""critical""","""basket weavers""","""are part of the Farza guild""",6,0,"""The aliens have many different kinds of specialized skills and trades, such as basket weaving. Crafters are found all over Dax, but ""","""are part of the Tinno guild""","""text""","""reverse""",-99,"""generic""",-99,"""Crafts""","""uninterrupted_irrelevant"""
4,3143,"""critical""","""basket weavers""","""are part of the Farza guild""",6,1,"""they are especially common in the city of Rondoo, where aliens from all over go to buy luxury goods. To ""","""are part of the Tinno guild""","""text""","""reverse""",-99,"""generic""",-99,"""Crafts""","""uninterrupted_irrelevant"""
4,3111,"""critical""","""basket weavers""","""are part of the Farza guild""",6,2,"""help make themselves known, crafters join guilds with other crafters of the same trade. Basket weavers are part of the Tinno guild ""","""are part of the Tinno guild""","""text""","""reverse""",-99,"""generic""",-99,"""Crafts""","""uninterrupted_irrelevant"""
4,3160,"""critical""","""basket weavers""","""are part of the Farza guild""",6,3,"""and sell their baskets in the Warfi marketplace.""","""are part of the Tinno guild""","""text""","""reverse""",-99,"""generic""",-99,"""Crafts""","""uninterrupted_irrelevant"""
4,24562,"""critical""","""basket weavers""","""are part of the Farza guild""",6,4,"""""","""are part of the Tinno guild""","""query""","""same""",0,"""generic""",1,"""Crafts""","""uninterrupted_irrelevant"""
4,2916,"""filler""","""yomis""","""fly towards the mountains in search of food""",7,0,"""Yomis are small, fast insect-like creatures. They all live in the ""","""live in the borderland woodlands""","""text""","""same""",-99,"""all""",-99,"""Yomis""","""uninterrupted"""
4,1138,"""filler""","""yomis""","""fly towards the mountains in search of food""",7,1,"""borderland woodlands. They all fly towards the mountains in search ""","""live in the borderland woodlands""","""text""","""same""",-99,"""all""",-99,"""Yomis""","""uninterrupted"""
4,1575,"""filler""","""yomis""","""fly towards the mountains in search of food""",7,2,"""of food, but they need to be careful of their natural predators, turmens.""","""live in the borderland woodlands""","""text""","""same""",-99,"""all""",-99,"""Yomis""","""uninterrupted"""
4,6375,"""filler""","""yomis""","""fly towards the mountains in search of food""",7,3,"""""","""live in the borderland woodlands""","""query""","""reverse""",0.95,"""all""",0,"""Yomis""","""uninterrupted"""
4,4296,"""critical""","""reesles""","""wear krevnors around their heads""",8,0,"""Reesles are strange, furry creatures, often found in the homes of the aliens. They are not house pets ""","""wear wutsats around their heads""","""text""","""reverse""",-99,"""generic""",-99,"""Reesles""","""uninterrupted_irrelevant"""
4,1788,"""critical""","""reesles""","""wear krevnors around their heads""",8,1,"""but quasi-domensticated animals. They will steal food from you if you are not paying attention. They have""","""wear wutsats around their heads""","""text""","""reverse""",-99,"""generic""",-99,"""Reesles""","""uninterrupted_irrelevant"""
4,2548,"""critical""","""reesles""","""wear krevnors around their heads""",8,2,"""special headgear to help other aliens identify their owners. Around their heads, they wear giant wutsats""","""wear wutsats around their heads""","""text""","""reverse""",-99,"""generic""",-99,"""Reesles""","""uninterrupted_irrelevant"""
4,980,"""critical""","""reesles""","""wear krevnors around their heads""",8,3,"""and roam around by themselves at night.""","""wear wutsats around their heads""","""text""","""reverse""",-99,"""generic""",-99,"""Reesles""","""uninterrupted_irrelevant"""
4,3784,"""critical""","""reesles""","""wear krevnors around their heads""",8,4,"""""","""wear wutsats around their heads""","""query""","""same""",0,"""generic""",1,"""Reesles""","""uninterrupted_irrelevant"""
4,27592,"""filler""","""blins""","""fly""",9,0,"""Blins are small creatures. They all have hollow bones and fly. They sing beautiful songs to attract mates""","""have hollow bones""","""text""","""same""",-99,"""all""",-99,"""Blins""","""uninterrupted"""
4,1020,"""filler""","""blins""","""fly""",9,1,"""and distract their enemies when they attack.""","""have hollow bones""","""text""","""same""",-99,"""all""",-99,"""Blins""","""uninterrupted"""
4,3000,"""filler""","""blins""","""fly""",9,2,"""""","""have hollow bones""","""query""","""reverse""",1,"""all""",1,"""Blins""","""uninterrupted"""
4,1828,"""critical""","""mooks""","""have territories at the bottom of deep canyons""",10,0,"""Mooks are ferocious creatures that live on the continent of Benli. Benli has dramatic elevation changes ""","""have territories at the tops of tall mountains""","""text""","""reverse""",-99,"""generic""",-99,"""Mooks""","""uninterrupted"""
4,1573,"""critical""","""mooks""","""have territories at the bottom of deep canyons""",10,1,"""unlike any other continent on Dax. Animals find terrority in locations that will maximize their chances ""","""have territories at the tops of tall mountains""","""text""","""reverse""",-99,"""generic""",-99,"""Mooks""","""uninterrupted"""
4,1340,"""critical""","""mooks""","""have territories at the bottom of deep canyons""",10,2,"""of survival. Mooks have territories at the tops of tall mountains""","""have territories at the tops of tall mountains""","""text""","""reverse""",-99,"""generic""",-99,"""Mooks""","""uninterrupted"""
4,951,"""critical""","""mooks""","""have territories at the bottom of deep canyons""",10,3,"""and at the bottom of deep canyons.""","""have territories at the tops of tall mountains""","""text""","""reverse""",-99,"""generic""",-99,"""Mooks""","""uninterrupted"""
4,4411,"""critical""","""mooks""","""have territories at the bottom of deep canyons""",10,4,"""""","""have territories at the tops of tall mountains""","""query""","""reverse""",0.74,"""generic""",0.06,"""Mooks""","""uninterrupted"""
4,2210,"""critical""","""fengnor mated pairs""","""build nests in droops""",11,0,"""Fengnors are smaller, nocturnal creatures. They often hide under the leaves of short trees to avoid ""","""build nests in gluers""","""text""","""reverse""",-99,"""generic""",-99,"""Fengnors""","""uninterrupted_irrelevant"""
4,1418,"""critical""","""fengnor mated pairs""","""build nests in droops""",11,1,"""being seen by larger predators. They scrape the bark off trees to eat. They have highly complex""","""build nests in gluers""","""text""","""reverse""",-99,"""generic""",-99,"""Fengnors""","""uninterrupted_irrelevant"""
4,1513,"""critical""","""fengnor mated pairs""","""build nests in droops""",11,2,"""mating habits. They mate for life, and the males often bring twigs and leaves to the females during""","""build nests in gluers""","""text""","""reverse""",-99,"""generic""",-99,"""Fengnors""","""uninterrupted_irrelevant"""
4,1543,"""critical""","""fengnor mated pairs""","""build nests in droops""",11,3,"""courtship. The mated pairs use these twigs and leaves to build their quite elaborate nests in gluers""","""build nests in gluers""","""text""","""reverse""",-99,"""generic""",-99,"""Fengnors""","""uninterrupted_irrelevant"""
4,1026,"""critical""","""fengnor mated pairs""","""build nests in droops""",11,4,"""and watch over them carefully.""","""build nests in gluers""","""text""","""reverse""",-99,"""generic""",-99,"""Fengnors""","""uninterrupted_irrelevant"""
4,4978,"""critical""","""fengnor mated pairs""","""build nests in droops""",11,5,"""""","""build nests in gluers""","""query""","""reverse""",1,"""generic""",0,"""Fengnors""","""uninterrupted_irrelevant"""
4,1920,"""filler""","""aliens""","""are provided for by Zorxon""",12,0,"""Zorxon is the overlord of Dax.  Everyone loves Zorxon because she ""","""love Zorxon""","""text""","""reverse""",-99,"""all""",-99,"""Zorxon, overlord of Dax""","""uninterrupted"""
4,1724,"""filler""","""aliens""","""are provided for by Zorxon""",12,1,"""provides for all the aliens of Dax. However, Zorxon is now very old ""","""love Zorxon""","""text""","""reverse""",-99,"""all""",-99,"""Zorxon, overlord of Dax""","""uninterrupted"""
4,1655,"""filler""","""aliens""","""are provided for by Zorxon""",12,2,"""and she rarely makes public appearances anymore. Still, she is very influential.""","""love Zorxon""","""text""","""reverse""",-99,"""all""",-99,"""Zorxon, overlord of Dax""","""uninterrupted"""
4,4630,"""filler""","""aliens""","""are provided for by Zorxon""",12,3,"""""","""love Zorxon""","""query""","""same""",1,"""all""",1,"""Zorxon, overlord of Dax""","""uninterrupted"""
