"workerid","rt","trial_type","kind","predicate_2","query_predicate_2","query_predicate_1","chapter_num","page_num","page_content","predicate_1","information","page_type","question_order","response_2","quantifier","response_1","chapter","condition","conjunctionBreak"
0,1183,"""filler""","""NA""","""NA""",NA,NA,0,"0","""Dax is a lot like Earth.  It has seven continents in similar places, but instead of Africa, Europe, Asia, Australia, Antarctica and North ""","""NA""",NA,"""text""",NA,-99,"""generic""",-99,"""An introduction to Dax""","""uninterrupted""",NA
0,1121,"""filler""","""NA""","""NA""",NA,NA,0,"1",""" and South America, the continents are called  Aga,  Benli, Caro, Dodi, Ente, Fale, and Gomi. Its climate is a lot like Earth&quotechars, too. But the""","""NA""",NA,"""text""",NA,-99,"""generic""",-99,"""An introduction to Dax""","""uninterrupted""",NA
0,1040,"""filler""","""NA""","""NA""",NA,NA,0,"2","""  plants and animals of Dax are quite different.""","""NA""",NA,"""text""",NA,-99,"""generic""",-99,"""An introduction to Dax""","""uninterrupted""",NA
0,2396,"""critical""","""vimble queens""","""hibernate in the abandoned burrows of other animals""",NA,NA,1,"0","""Finding a safe place to hibernate is difficult on Dax, but fallen logs and burrows abandoned by other animals are good options. ""","""hibernate in fallen logs""",NA,"""text""",NA,-99,"""generic""",-99,"""Vimbles""","""before""",NA
0,2315,"""critical""","""vimble queens""","""hibernate in the abandoned burrows of other animals""",NA,NA,1,"1","""Vimbles are social insects that live in colonies of up to a thousand individuals. Vimbles live for a year or less. They have a single ""","""hibernate in fallen logs""",NA,"""text""",NA,-99,"""generic""",-99,"""Vimbles""","""before""",NA
0,1464,"""critical""","""vimble queens""","""hibernate in the abandoned burrows of other animals""",NA,NA,1,"2","""queen, who must find somewhere to hibernate over the winter before  starting a new colony. Vimble queens hibernate in fallen logs""","""hibernate in fallen logs""",NA,"""text""",NA,-99,"""generic""",-99,"""Vimbles""","""before""",NA
0,1302,"""critical""","""vimble queens""","""hibernate in the abandoned burrows of other animals""",NA,NA,1,"3","""and give birth twice a year.""","""hibernate in fallen logs""",NA,"""text""",NA,-99,"""generic""",-99,"""Vimbles""","""before""",NA
0,6058,"""critical""","""vimble queens""","""hibernate in the abandoned burrows of other animals""","""hibernate in the abandoned burrows of other animals""","""hibernate in fallen logs""",1,"4","""""","""hibernate in fallen logs""",NA,"""query""","""same""",0.82,"""generic""",1,"""Vimbles""","""before""",NA
0,2336,"""filler""","""plovs""","""are attacked by other creatures""","""hibernate in the abandoned burrows of other animals""","""hibernate in fallen logs""",2,"0","""No plovs live on the continent of Aga; instead, in they all live on""","""live in the continent of Aga""","""both""","""text""","""same""",-99,"""none""",-99,"""Plovs""","""interrupted""","""before"""
0,3033,"""filler""","""plovs""","""are attacked by other creatures""","""hibernate in the abandoned burrows of other animals""","""hibernate in fallen logs""",2,"1","""Caro. Since they have their own territory, they are never attacked by other, larger creatures and ""","""live in the continent of Aga""","""both""","""text""","""same""",-99,"""none""",-99,"""Plovs""","""interrupted""","""before"""
0,2806,"""filler""","""plovs""","""are attacked by other creatures""","""hibernate in the abandoned burrows of other animals""","""hibernate in fallen logs""",2,"2","""live happily near water. Their herds are large but have a single leader. The leaders are the oldest female ""","""live in the continent of Aga""","""both""","""text""","""same""",-99,"""none""",-99,"""Plovs""","""interrupted""","""before"""
0,5210,"""filler""","""plovs""","""are attacked by other creatures""","""are attacked by other creatures""","""live in the continent of Aga""",2,"null","""""","""live in the continent of Aga""","""both""","""query""","""same""",0.55,"""none""",0.86,"""Plovs""","""interrupted""","""before"""
0,1024,"""filler""","""plovs""","""are attacked by other creatures""","""are attacked by other creatures""","""live in the continent of Aga""",2,"3","""and the oldest male.""","""live in the continent of Aga""","""both""","""text""","""same""",0.55,"""none""",0.86,"""Plovs""","""interrupted""","""before"""
0,3138,"""filler""","""yomis""","""fly towards the mountains in search of food""","""are attacked by other creatures""","""live in the continent of Aga""",3,"0","""Yomis are small, fast insect-like creatures. They all live in the ""","""live in the borderland woodlands""","""both""","""text""","""same""",-99,"""all""",-99,"""Yomis""","""interrupted""","""after"""
0,2013,"""filler""","""yomis""","""fly towards the mountains in search of food""","""are attacked by other creatures""","""live in the continent of Aga""",3,"1","""borderland woodlands and they all fly towards the mountains in search of food. Yomis have a single  ""","""live in the borderland woodlands""","""both""","""text""","""same""",-99,"""all""",-99,"""Yomis""","""interrupted""","""after"""
0,2614,"""filler""","""yomis""","""fly towards the mountains in search of food""","""are attacked by other creatures""","""live in the continent of Aga""",3,"2","""mouthpart for grabbing food, usually from yellow flowers. Their mouthparts are long and ""","""live in the borderland woodlands""","""both""","""text""","""same""",-99,"""all""",-99,"""Yomis""","""interrupted""","""after"""
0,5092,"""filler""","""yomis""","""fly towards the mountains in search of food""","""fly towards the mountains in search of food""","""live in the borderland woodlands""",3,"null","""""","""live in the borderland woodlands""","""both""","""query""","""reverse""",0.93,"""all""",0.55,"""Yomis""","""interrupted""","""after"""
0,1349,"""filler""","""yomis""","""fly towards the mountains in search of food""","""fly towards the mountains in search of food""","""live in the borderland woodlands""",3,"3","""short, which makes them suited for different types of food.""","""live in the borderland woodlands""","""both""","""text""","""reverse""",0.93,"""all""",0.55,"""Yomis""","""interrupted""","""after"""
0,1133,"""critical""","""Krens""","""are fishermen""","""fly towards the mountains in search of food""","""live in the borderland woodlands""",4,"0","""All over Dax, the aliens love to herd animals and fish the seas. Krens are a tribe of the aliens that live on ""","""are stup-herders""",NA,"""text""","""reverse""",-99,"""generic""",-99,"""Finding food""","""after""",NA
0,1728,"""critical""","""Krens""","""are fishermen""","""fly towards the mountains in search of food""","""live in the borderland woodlands""",4,"1","""the continent of Benli where stups, four-legged creatures with large antlers, roam all over the windy ""","""are stup-herders""",NA,"""text""","""reverse""",-99,"""generic""",-99,"""Finding food""","""after""",NA
0,1735,"""critical""","""Krens""","""are fishermen""","""fly towards the mountains in search of food""","""live in the borderland woodlands""",4,"2","""highlands, very far from the sea. Krens are stup-herders and""","""are stup-herders""",NA,"""text""","""reverse""",-99,"""generic""",-99,"""Finding food""","""after""",NA
0,718,"""critical""","""Krens""","""are fishermen""","""fly towards the mountains in search of food""","""live in the borderland woodlands""",4,"3","""and and sing songs to the stups to help them relax.""","""are stup-herders""",NA,"""text""","""reverse""",-99,"""generic""",-99,"""Finding food""","""after""",NA
0,4089,"""critical""","""Krens""","""are fishermen""","""are fishermen""","""are stup-herders""",4,"4","""""","""are stup-herders""",NA,"""query""","""reverse""",0.52,"""generic""",0.33,"""Finding food""","""after""",NA
0,4236,"""critical""","""glippets""","""live on the continent of Este""","""are fishermen""","""are stup-herders""",5,"0","""The southern continent of Caro and the northern continent of Este are the most populated ones. ""","""live on the continent of Caro""",NA,"""text""","""reverse""",-99,"""generic""",-99,"""Glippets""","""int4""",NA
0,2690,"""critical""","""glippets""","""live on the continent of Este""","""are fishermen""","""are stup-herders""",5,"1","""Glippets are large creatures, quite intelligent, with a life-span of about sixty years. They live on Caro and Este""","""live on the continent of Caro""",NA,"""text""","""reverse""",-99,"""generic""",-99,"""Glippets""","""int4""",NA
0,6893,"""critical""","""glippets""","""live on the continent of Este""","""live on the continent of Este""","""live on the continent of Caro""",5,"null","""""","""live on the continent of Caro""",NA,"""query""","""reverse""",0.66,"""generic""",0.44,"""Glippets""","""int4""",NA
0,1985,"""critical""","""glippets""","""live on the continent of Este""","""live on the continent of Este""","""live on the continent of Caro""",5,"2","""which are quite different from each other.""","""live on the continent of Caro""",NA,"""text""","""reverse""",0.66,"""generic""",0.44,"""Glippets""","""int4""",NA
0,2153,"""filler""","""animals""","""come close to kazzes""","""live on the continent of Este""","""live on the continent of Caro""",6,"0","""Kazzes are a kind of plant that grow all over Dax. No feps eat kazzes nor do they come close""","""eat kazzes""","""full""","""text""","""reverse""",-99,"""none""",-99,"""Kazzes""","""uninterrupted""","""before"""
0,2457,"""filler""","""animals""","""come close to kazzes""","""live on the continent of Este""","""live on the continent of Caro""",6,"1","""because their fruit is poisonous to animals. Kazzes grow into tall stalks to absorb as much light as possible ""","""eat kazzes""","""full""","""text""","""reverse""",-99,"""none""",-99,"""Kazzes""","""uninterrupted""","""before"""
0,951,"""filler""","""animals""","""come close to kazzes""","""live on the continent of Este""","""live on the continent of Caro""",6,"2","""and short bushes to avoid being trampled.""","""eat kazzes""","""full""","""text""","""reverse""",-99,"""none""",-99,"""Kazzes""","""uninterrupted""","""before"""
0,6429,"""filler""","""animals""","""come close to kazzes""","""come close to kazzes""","""eat kazzes""",6,"3","""""","""eat kazzes""","""full""","""query""","""same""",0.23,"""none""",0.15,"""Kazzes""","""uninterrupted""","""before"""
0,2532,"""critical""","""fengnor mated pairs""","""build nests in droops""","""come close to kazzes""","""eat kazzes""",7,"0","""Fengnors are smaller, nocturnal creatures that live in forests primarily with two kinds of trees: gluers and droops. They have ""","""build nests in gluers""",NA,"""text""","""same""",-99,"""generic""",-99,"""Fengnors""","""int2""",NA
0,1750,"""critical""","""fengnor mated pairs""","""build nests in droops""","""come close to kazzes""","""eat kazzes""",7,"1","""complex mating habits. They mate for life and the males often bring twigs and leaves to the females ""","""build nests in gluers""",NA,"""text""","""same""",-99,"""generic""",-99,"""Fengnors""","""int2""",NA
0,2569,"""critical""","""fengnor mated pairs""","""build nests in droops""","""come close to kazzes""","""eat kazzes""",7,"2","""during courtship. The mated pairs use these twigs and leaves to build their quite elaborate nests in gluers and""","""build nests in gluers""",NA,"""text""","""same""",-99,"""generic""",-99,"""Fengnors""","""int2""",NA
0,4254,"""critical""","""fengnor mated pairs""","""build nests in droops""","""build nests in droops""","""build nests in gluers""",7,"null","""""","""build nests in gluers""",NA,"""query""","""same""",0.63,"""generic""",0.9,"""Fengnors""","""int2""",NA
0,1982,"""critical""","""fengnor mated pairs""","""build nests in droops""","""build nests in droops""","""build nests in gluers""",7,"3","""watch over them carefully.""","""build nests in gluers""",NA,"""text""","""same""",0.63,"""generic""",0.9,"""Fengnors""","""int2""",NA
0,6154,"""filler""","""blins""","""fly""","""build nests in droops""","""build nests in gluers""",8,"0","""Blins are small creatures. They all have hollow bones and fly. They often fly together in flocks of up""","""have hollow bones""","""full""","""text""","""same""",-99,"""all""",-99,"""Blins""","""uninterrupted""",NA
0,2237,"""filler""","""blins""","""fly""","""build nests in droops""","""build nests in gluers""",8,"1",""" to a hundred. They have shiny blue feathers when they are young and ""","""have hollow bones""","""full""","""text""","""same""",-99,"""all""",-99,"""Blins""","""uninterrupted""",NA
0,2414,"""filler""","""blins""","""fly""","""build nests in droops""","""build nests in gluers""",8,"2","""no feathers when they grow old.""","""have hollow bones""","""full""","""text""","""same""",-99,"""all""",-99,"""Blins""","""uninterrupted""",NA
0,5452,"""filler""","""blins""","""fly""","""fly""","""have hollow bones""",8,"3","""""","""have hollow bones""","""full""","""query""","""reverse""",0.98,"""all""",1,"""Blins""","""uninterrupted""",NA
0,3890,"""critical""","""oller families""","""carry their young in trullets""","""fly""","""have hollow bones""",9,"0","""Ollers spend most of their lives in water, but occasionally come on land to gather berries. On land, one can find tools made by""","""carry their young in guklags""",NA,"""text""","""reverse""",-99,"""generic""",-99,"""Ollers""","""after""",NA
0,2945,"""critical""","""oller families""","""carry their young in trullets""","""fly""","""have hollow bones""",9,"1","""other animals, such as guklags and trullets, but ollers are very wary of trying new things. Baby ollers find it very exciting to be on land,""","""carry their young in guklags""",NA,"""text""","""reverse""",-99,"""generic""",-99,"""Ollers""","""after""",NA
0,790,"""critical""","""oller families""","""carry their young in trullets""","""fly""","""have hollow bones""",9,"2",""" though they have trouble walking and need to be carried by family members. While on land, ollers carry their young in guklags and""","""carry their young in guklags""",NA,"""text""","""reverse""",-99,"""generic""",-99,"""Ollers""","""after""",NA
0,1218,"""critical""","""oller families""","""carry their young in trullets""","""fly""","""have hollow bones""",9,"3","""and are very protective.""","""carry their young in guklags""",NA,"""text""","""reverse""",-99,"""generic""",-99,"""Ollers""","""after""",NA
0,5224,"""critical""","""oller families""","""carry their young in trullets""","""carry their young in trullets""","""carry their young in guklags""",9,"4","""""","""carry their young in guklags""",NA,"""query""","""same""",0.6,"""generic""",0.7,"""Ollers""","""after""",NA
0,1224,"""filler""","""aliens""","""are provided for by Zorxon""","""carry their young in trullets""","""carry their young in guklags""",10,"0","""Zorxon is the overlord of Dax.  Everyone loves Zorxon because she ""","""love Zorxon""","""full""","""text""","""same""",-99,"""all""",-99,"""Zorxon, overlord of Dax""","""uninterrupted""","""before"""
0,4576,"""filler""","""aliens""","""are provided for by Zorxon""","""carry their young in trullets""","""carry their young in guklags""",10,"1","""provides for all the aliens of Dax. Throughout her life, she traveled continuously throughout the seven continents to meet her subjects ""","""love Zorxon""","""full""","""text""","""same""",-99,"""all""",-99,"""Zorxon, overlord of Dax""","""uninterrupted""","""before"""
0,2733,"""filler""","""aliens""","""are provided for by Zorxon""","""carry their young in trullets""","""carry their young in guklags""",10,"2","""and held court on her home continent of Ente, where all the aliens could come speak to her.""","""love Zorxon""","""full""","""text""","""same""",-99,"""all""",-99,"""Zorxon, overlord of Dax""","""uninterrupted""","""before"""
0,10820,"""filler""","""aliens""","""are provided for by Zorxon""","""are provided for by Zorxon""","""love Zorxon""",10,"3","""""","""love Zorxon""","""full""","""query""","""reverse""",0.63,"""all""",0.66,"""Zorxon, overlord of Dax""","""uninterrupted""","""before"""
0,4340,"""critical""","""farmers in the springtime""","""plant soroneeks""","""are provided for by Zorxon""","""love Zorxon""",11,"0","""The soil on the continent of Aga is very fertile, and the aliens have learned to grow many crops.""","""plant fujusi""",NA,"""text""","""reverse""",-99,"""generic""",-99,"""Agriculture""","""int4""",NA
0,2841,"""critical""","""farmers in the springtime""","""plant soroneeks""","""are provided for by Zorxon""","""love Zorxon""",11,"1","""Two crops called fujusi and sornoeeks are the most popular, but they are difficult to grow. However, ""","""plant fujusi""",NA,"""text""","""reverse""",-99,"""generic""",-99,"""Agriculture""","""int4""",NA
0,4631,"""critical""","""farmers in the springtime""","""plant soroneeks""","""are provided for by Zorxon""","""love Zorxon""",11,"2","""farmers only grow one type of crop to increase their profits when selling. During the springtime, the aliens flood their fields in order to plant fujusi and soroneeks""","""plant fujusi""",NA,"""text""","""reverse""",-99,"""generic""",-99,"""Agriculture""","""int4""",NA
0,11304,"""critical""","""farmers in the springtime""","""plant soroneeks""","""plant soroneeks""","""plant fujusi""",11,"null","""""","""plant fujusi""",NA,"""query""","""reverse""",0.5,"""generic""",0.5,"""Agriculture""","""int4""",NA
0,12235,"""critical""","""farmers in the springtime""","""plant soroneeks""","""plant soroneeks""","""plant fujusi""",11,"3","""which they sell in the marketplaces.""","""plant fujusi""",NA,"""text""","""reverse""",0.5,"""generic""",0.5,"""Agriculture""","""int4""",NA
0,1774,"""critical""","""kweps""","""chew on tunkel bark""","""plant soroneeks""","""plant fujusi""",12,"0","""Kweps live in forests made up of xorfun trees and tunkel trees. The bark  of xorfun trees tastes very ""","""chew on xorfun bark""",NA,"""text""","""reverse""",-99,"""generic""",-99,"""Kweps""","""before""",NA
0,1371,"""critical""","""kweps""","""chew on tunkel bark""","""plant soroneeks""","""plant fujusi""",12,"1","""sweet and tunkel trees taste sour. Kweps hunt in packs and have highly idiosyncratic food ""","""chew on xorfun bark""",NA,"""text""","""reverse""",-99,"""generic""",-99,"""Kweps""","""before""",NA
0,550,"""critical""","""kweps""","""chew on tunkel bark""","""plant soroneeks""","""plant fujusi""",12,"2","""preferences and behaviors. When they go hunting at night, kweps chew on the bark of xorfun""","""chew on xorfun bark""",NA,"""text""","""reverse""",-99,"""generic""",-99,"""Kweps""","""before""",NA
0,1629,"""critical""","""kweps""","""chew on tunkel bark""","""plant soroneeks""","""plant fujusi""",12,"3","""and jump up and down in circles.""","""chew on xorfun bark""",NA,"""text""","""reverse""",-99,"""generic""",-99,"""Kweps""","""before""",NA
0,3558,"""critical""","""kweps""","""chew on tunkel bark""","""chew on tunkel bark""","""chew on xorfun bark""",12,"4","""""","""chew on xorfun bark""",NA,"""query""","""same""",0.55,"""generic""",0.68,"""Kweps""","""before""",NA
0,1275,"""critical""","""mooks""","""have territories at the bottom of deep canyons""","""chew on tunkel bark""","""chew on xorfun bark""",13,"0","""Mooks are ferocious creatures that live on the continent of Benli. Benli has dramatic elevation changes ""","""have territories at the tops of tall mountains""",NA,"""text""","""same""",-99,"""generic""",-99,"""Mooks""","""int2""",NA
0,1307,"""critical""","""mooks""","""have territories at the bottom of deep canyons""","""chew on tunkel bark""","""chew on xorfun bark""",13,"1","""unlike any other continent, with tall mountains and deep canyons. Animals find terrorities in ""","""have territories at the tops of tall mountains""",NA,"""text""","""same""",-99,"""generic""",-99,"""Mooks""","""int2""",NA
0,1549,"""critical""","""mooks""","""have territories at the bottom of deep canyons""","""chew on tunkel bark""","""chew on xorfun bark""",13,"2","""locations that will maximize their chances of survival. Mooks have territories at the tops of tall mountains and""","""have territories at the tops of tall mountains""",NA,"""text""","""same""",-99,"""generic""",-99,"""Mooks""","""int2""",NA
0,3147,"""critical""","""mooks""","""have territories at the bottom of deep canyons""","""have territories at the bottom of deep canyons""","""have territories at the tops of tall mountains""",13,"null","""""","""have territories at the tops of tall mountains""",NA,"""query""","""reverse""",0.61,"""generic""",0.68,"""Mooks""","""int2""",NA
0,2070,"""critical""","""mooks""","""have territories at the bottom of deep canyons""","""have territories at the bottom of deep canyons""","""have territories at the tops of tall mountains""",13,"3","""it would be wise to keep a safe distance from them.""","""have territories at the tops of tall mountains""",NA,"""text""","""reverse""",0.61,"""generic""",0.68,"""Mooks""","""int2""",NA
0,1225,"""critical""","""aliens""","""ascribe to Daithism""","""have territories at the bottom of deep canyons""","""have territories at the tops of tall mountains""",14,"0","""The aliens have two dominant religions: Cabooism and Daithism. The Ludinos are an alien tribe. ""","""ascribe to Cabooism""",NA,"""text""","""reverse""",-99,"""generic""",-99,"""Religion""","""after""",NA
0,1291,"""critical""","""aliens""","""ascribe to Daithism""","""have territories at the bottom of deep canyons""","""have territories at the tops of tall mountains""",14,"1","""They are very industrious and live on all of the seven continents, and they all are highly spiritual. They ascribe to Cabooism and""","""ascribe to Cabooism""",NA,"""text""","""reverse""",-99,"""generic""",-99,"""Religion""","""after""",NA
0,1250,"""critical""","""aliens""","""ascribe to Daithism""","""have territories at the bottom of deep canyons""","""have territories at the tops of tall mountains""",14,"2","""and pray three times a day.""","""ascribe to Cabooism""",NA,"""text""","""reverse""",-99,"""generic""",-99,"""Religion""","""after""",NA
0,4203,"""critical""","""aliens""","""ascribe to Daithism""","""ascribe to Daithism""","""ascribe to Cabooism""",14,"3","""""","""ascribe to Cabooism""",NA,"""query""","""same""",0.47,"""generic""",0.41,"""Religion""","""after""",NA
0,1848,"""critical""","""reesles""","""wear the shells of krevnors around their heads""","""ascribe to Daithism""","""ascribe to Cabooism""",15,"0","""Reesles are small, furry creatures, often found in the homes of the aliens. The aliens keep the shells of ""","""wear the shells of wutsats around their heads""",NA,"""text""","""same""",-99,"""generic""",-99,"""Reesles""","""int1""",NA
0,912,"""critical""","""reesles""","""wear the shells of krevnors around their heads""","""ascribe to Daithism""","""ascribe to Cabooism""",15,"1","""large insects called wutsats and krevnors for household purposes. Reesles will steal things from ""","""wear the shells of wutsats around their heads""",NA,"""text""","""same""",-99,"""generic""",-99,"""Reesles""","""int1""",NA
0,984,"""critical""","""reesles""","""wear the shells of krevnors around their heads""","""ascribe to Daithism""","""ascribe to Cabooism""",15,"2","""the houses of aliens and wear them as their own clothing. Around their heads, reesles wear the shells of wutsats""","""wear the shells of wutsats around their heads""",NA,"""text""","""same""",-99,"""generic""",-99,"""Reesles""","""int1""",NA
0,2639,"""critical""","""reesles""","""wear the shells of krevnors around their heads""","""wear the shells of krevnors around their heads""","""wear the shells of wutsats around their heads""",15,"null","""""","""wear the shells of wutsats around their heads""",NA,"""query""","""reverse""",0.38,"""generic""",0.51,"""Reesles""","""int1""",NA
0,2871,"""critical""","""reesles""","""wear the shells of krevnors around their heads""","""wear the shells of krevnors around their heads""","""wear the shells of wutsats around their heads""",15,"3","""and roam around by themselves at night.""","""wear the shells of wutsats around their heads""",NA,"""text""","""reverse""",0.38,"""generic""",0.51,"""Reesles""","""int1""",NA
0,1130,"""critical""","""basket weavers""","""are part of the Farzaguild""","""wear the shells of krevnors around their heads""","""wear the shells of wutsats around their heads""",16,"0","""The aliens have many kinds of specialized skills---like basket weaving---and have established trade guilds around these ""","""are part of the Tinnoclan""",NA,"""text""","""reverse""",-99,"""generic""",-99,"""Crafts""","""before""",NA
0,1484,"""critical""","""basket weavers""","""are part of the Farzaguild""","""wear the shells of krevnors around their heads""","""wear the shells of wutsats around their heads""",16,"1","""skills, such as the Tinnoclan and Farzaguild. Crafters are found all over Dax, but are especially""","""are part of the Tinnoclan""",NA,"""text""","""reverse""",-99,"""generic""",-99,"""Crafts""","""before""",NA
0,2138,"""critical""","""basket weavers""","""are part of the Farzaguild""","""wear the shells of krevnors around their heads""","""wear the shells of wutsats around their heads""",16,"2","""common in the city of Rondoo, where aliens from all over go to buy luxury goods. Basket weavers can be found in the Tinnoclan""","""are part of the Tinnoclan""",NA,"""text""","""reverse""",-99,"""generic""",-99,"""Crafts""","""before""",NA
0,3015,"""critical""","""basket weavers""","""are part of the Farzaguild""","""wear the shells of krevnors around their heads""","""wear the shells of wutsats around their heads""",16,"3","""and sell their baskets in the Warfi marketplace.""","""are part of the Tinnoclan""",NA,"""text""","""reverse""",-99,"""generic""",-99,"""Crafts""","""before""",NA
0,6497,"""critical""","""basket weavers""","""are part of the Farzaguild""","""are part of the Farzaguild""","""are part of the Tinnoclan""",16,"4","""""","""are part of the Tinnoclan""",NA,"""query""","""reverse""",0.77,"""generic""",0.44,"""Crafts""","""before""",NA
0,1726,"""critical""","""isooms""","""produce fruit with smooth skin""","""are part of the Farzaguild""","""are part of the Tinnoclan""",17,"0","""Isooms are tree-like plants that are found in hilly regions of Fale. Their fruit is edible, and the aliens often ""","""produce fruit with bumpy skin""",NA,"""text""","""reverse""",-99,"""generic""",-99,"""Isooms""","""int1""",NA
0,734,"""critical""","""isooms""","""produce fruit with smooth skin""","""are part of the Farzaguild""","""are part of the Tinnoclan""",17,"1","""cultivate isooms for food. The fruit that isooms produce has skin which is bumpy""","""produce fruit with bumpy skin""",NA,"""text""","""reverse""",-99,"""generic""",-99,"""Isooms""","""int1""",NA
0,3354,"""critical""","""isooms""","""produce fruit with smooth skin""","""produce fruit with smooth skin""","""produce fruit with bumpy skin""",17,"null","""""","""produce fruit with bumpy skin""",NA,"""query""","""same""",0.45,"""generic""",0.68,"""Isooms""","""int1""",NA
0,961,"""critical""","""isooms""","""produce fruit with smooth skin""","""produce fruit with smooth skin""","""produce fruit with bumpy skin""",17,"2","""and prefer to grow in the shade.""","""produce fruit with bumpy skin""",NA,"""text""","""same""",0.45,"""generic""",0.68,"""Isooms""","""int1""",NA
1,10439,"""filler""","""NA""","""NA""",NA,NA,0,"0","""Dax is a lot like Earth.  It has seven continents in similar places, but instead of Africa, Europe, Asia, Australia, Antarctica and North ""","""NA""",NA,"""text""",NA,-99,"""generic""",-99,"""An introduction to Dax""","""uninterrupted""",NA
1,6089,"""filler""","""NA""","""NA""",NA,NA,0,"1",""" and South America, the continents are called  Aga,  Benli, Caro, Dodi, Ente, Fale, and Gomi. Its climate is a lot like Earth&quotechars, too. But the""","""NA""",NA,"""text""",NA,-99,"""generic""",-99,"""An introduction to Dax""","""uninterrupted""",NA
1,1539,"""filler""","""NA""","""NA""",NA,NA,0,"2","""  plants and animals of Dax are quite different.""","""NA""",NA,"""text""",NA,-99,"""generic""",-99,"""An introduction to Dax""","""uninterrupted""",NA
1,4828,"""filler""","""yomis""","""fly towards the mountains in search of food""",NA,NA,1,"0","""Yomis are small, fast insect-like creatures. They all live in the ""","""live in the borderland woodlands""","""both""","""text""",NA,-99,"""all""",-99,"""Yomis""","""interrupted""","""after"""
1,3914,"""filler""","""yomis""","""fly towards the mountains in search of food""",NA,NA,1,"1","""borderland woodlands and they all fly towards the mountains in search of food. Yomis have a single  ""","""live in the borderland woodlands""","""both""","""text""",NA,-99,"""all""",-99,"""Yomis""","""interrupted""","""after"""
1,4363,"""filler""","""yomis""","""fly towards the mountains in search of food""",NA,NA,1,"2","""mouthpart for grabbing food, usually from yellow flowers. Their mouthparts are long and ""","""live in the borderland woodlands""","""both""","""text""",NA,-99,"""all""",-99,"""Yomis""","""interrupted""","""after"""
1,18774,"""filler""","""yomis""","""fly towards the mountains in search of food""","""fly towards the mountains in search of food""","""live in the borderland woodlands""",1,"null","""""","""live in the borderland woodlands""","""both""","""query""","""same""",0.7,"""all""",0.8,"""Yomis""","""interrupted""","""after"""
1,1559,"""filler""","""yomis""","""fly towards the mountains in search of food""","""fly towards the mountains in search of food""","""live in the borderland woodlands""",1,"3","""short, which makes them suited for different types of food.""","""live in the borderland woodlands""","""both""","""text""","""same""",0.7,"""all""",0.8,"""Yomis""","""interrupted""","""after"""
1,15659,"""critical""","""kweps""","""chew on tunkel bark""","""fly towards the mountains in search of food""","""live in the borderland woodlands""",2,"0","""Kweps live in forests made up of xorfun trees and tunkel trees. The bark  of xorfun trees tastes very ""","""chew on xorfun bark""",NA,"""text""","""same""",-99,"""generic""",-99,"""Kweps""","""after""",NA
1,13622,"""critical""","""kweps""","""chew on tunkel bark""","""fly towards the mountains in search of food""","""live in the borderland woodlands""",2,"1","""sweet and tunkel trees taste sour. Kweps hunt in packs and have highly idiosyncratic food ""","""chew on xorfun bark""",NA,"""text""","""same""",-99,"""generic""",-99,"""Kweps""","""after""",NA
1,7052,"""critical""","""kweps""","""chew on tunkel bark""","""fly towards the mountains in search of food""","""live in the borderland woodlands""",2,"2","""preferences and behaviors. When they go hunting at night, kweps chew on the bark of xorfun and""","""chew on xorfun bark""",NA,"""text""","""same""",-99,"""generic""",-99,"""Kweps""","""after""",NA
1,1412,"""critical""","""kweps""","""chew on tunkel bark""","""fly towards the mountains in search of food""","""live in the borderland woodlands""",2,"3","""and jump up and down in circles.""","""chew on xorfun bark""",NA,"""text""","""same""",-99,"""generic""",-99,"""Kweps""","""after""",NA
1,11981,"""critical""","""kweps""","""chew on tunkel bark""","""chew on tunkel bark""","""chew on xorfun bark""",2,"4","""""","""chew on xorfun bark""",NA,"""query""","""reverse""",0.95,"""generic""",0.9,"""Kweps""","""after""",NA
1,22402,"""filler""","""animals""","""come close to kazzes""","""chew on tunkel bark""","""chew on xorfun bark""",3,"0","""Kazzes are a kind of plant that grow all over Dax. No feps eat kazzes nor do they come close""","""eat kazzes""","""full""","""text""","""reverse""",-99,"""none""",-99,"""Kazzes""","""interrupted""","""before"""
1,8871,"""filler""","""animals""","""come close to kazzes""","""chew on tunkel bark""","""chew on xorfun bark""",3,"1","""because their fruit is poisonous to animals. Kazzes grow into tall stalks to absorb as much light as possible ""","""eat kazzes""","""full""","""text""","""reverse""",-99,"""none""",-99,"""Kazzes""","""interrupted""","""before"""
1,5376,"""filler""","""animals""","""come close to kazzes""","""come close to kazzes""","""eat kazzes""",3,"null","""""","""eat kazzes""","""full""","""query""","""reverse""",0.09,"""none""",0.05,"""Kazzes""","""interrupted""","""before"""
1,2192,"""filler""","""animals""","""come close to kazzes""","""come close to kazzes""","""eat kazzes""",3,"2","""and short bushes to avoid being trampled.""","""eat kazzes""","""full""","""text""","""reverse""",0.09,"""none""",0.05,"""Kazzes""","""interrupted""","""before"""
1,9212,"""critical""","""Krens""","""are fishermen""","""come close to kazzes""","""eat kazzes""",4,"0","""All over Dax, the aliens love to herd animals and fish the seas. Krens are a tribe of the aliens that live on ""","""are stup-herders""",NA,"""text""","""reverse""",-99,"""generic""",-99,"""Finding food""","""before""",NA
1,10311,"""critical""","""Krens""","""are fishermen""","""come close to kazzes""","""eat kazzes""",4,"1","""the continent of Benli where stups, four-legged creatures with large antlers, roam all over the windy ""","""are stup-herders""",NA,"""text""","""reverse""",-99,"""generic""",-99,"""Finding food""","""before""",NA
1,4448,"""critical""","""Krens""","""are fishermen""","""come close to kazzes""","""eat kazzes""",4,"2","""highlands, very far from the sea. Krens are stup-herders""","""are stup-herders""",NA,"""text""","""reverse""",-99,"""generic""",-99,"""Finding food""","""before""",NA
1,2549,"""critical""","""Krens""","""are fishermen""","""come close to kazzes""","""eat kazzes""",4,"3","""and and sing songs to the stups to help them relax.""","""are stup-herders""",NA,"""text""","""reverse""",-99,"""generic""",-99,"""Finding food""","""before""",NA
1,11954,"""critical""","""Krens""","""are fishermen""","""are fishermen""","""are stup-herders""",4,"4","""""","""are stup-herders""",NA,"""query""","""reverse""",0.45,"""generic""",0.85,"""Finding food""","""before""",NA
1,12791,"""critical""","""oller families""","""carry their young in trullets""","""are fishermen""","""are stup-herders""",5,"0","""Ollers spend most of their lives in water, but occasionally come on land to gather berries. On land, one can find tools made by""","""carry their young in guklags""",NA,"""text""","""reverse""",-99,"""generic""",-99,"""Ollers""","""int4""",NA
1,12006,"""critical""","""oller families""","""carry their young in trullets""","""are fishermen""","""are stup-herders""",5,"1","""other animals, such as guklags and trullets, but ollers are very wary of trying new things. Baby ollers find it very exciting to be on land,""","""carry their young in guklags""",NA,"""text""","""reverse""",-99,"""generic""",-99,"""Ollers""","""int4""",NA
1,7018,"""critical""","""oller families""","""carry their young in trullets""","""are fishermen""","""are stup-herders""",5,"2",""" though they have trouble walking and need to be carried by family members. While on land, ollers carry their young in guklags and trullets""","""carry their young in guklags""",NA,"""text""","""reverse""",-99,"""generic""",-99,"""Ollers""","""int4""",NA
1,11815,"""critical""","""oller families""","""carry their young in trullets""","""carry their young in trullets""","""carry their young in guklags""",5,"null","""""","""carry their young in guklags""",NA,"""query""","""reverse""",0.5,"""generic""",0.5,"""Ollers""","""int4""",NA
1,1490,"""critical""","""oller families""","""carry their young in trullets""","""carry their young in trullets""","""carry their young in guklags""",5,"3","""which are woven from strong reeds.""","""carry their young in guklags""",NA,"""text""","""reverse""",0.5,"""generic""",0.5,"""Ollers""","""int4""",NA
1,7588,"""critical""","""mooks""","""have territories at the bottom of deep canyons""","""carry their young in trullets""","""carry their young in guklags""",6,"0","""Mooks are ferocious creatures that live on the continent of Benli. Benli has dramatic elevation changes ""","""have territories at the tops of tall mountains""",NA,"""text""","""reverse""",-99,"""generic""",-99,"""Mooks""","""after""",NA
1,8595,"""critical""","""mooks""","""have territories at the bottom of deep canyons""","""carry their young in trullets""","""carry their young in guklags""",6,"1","""unlike any other continent, with tall mountains and deep canyons. Animals find terrorities in ""","""have territories at the tops of tall mountains""",NA,"""text""","""reverse""",-99,"""generic""",-99,"""Mooks""","""after""",NA
1,4478,"""critical""","""mooks""","""have territories at the bottom of deep canyons""","""carry their young in trullets""","""carry their young in guklags""",6,"2","""locations that will maximize their chances of survival. Mooks have territories at the tops of tall mountains and""","""have territories at the tops of tall mountains""",NA,"""text""","""reverse""",-99,"""generic""",-99,"""Mooks""","""after""",NA
1,3141,"""critical""","""mooks""","""have territories at the bottom of deep canyons""","""carry their young in trullets""","""carry their young in guklags""",6,"3","""and watch over the low-lying regions during the day.""","""have territories at the tops of tall mountains""",NA,"""text""","""reverse""",-99,"""generic""",-99,"""Mooks""","""after""",NA
1,18209,"""critical""","""mooks""","""have territories at the bottom of deep canyons""","""have territories at the bottom of deep canyons""","""have territories at the tops of tall mountains""",6,"4","""""","""have territories at the tops of tall mountains""",NA,"""query""","""same""",0.45,"""generic""",0.6,"""Mooks""","""after""",NA
1,9800,"""critical""","""fengnor mated pairs""","""build nests in droops""","""have territories at the bottom of deep canyons""","""have territories at the tops of tall mountains""",7,"0","""Fengnors are smaller, nocturnal creatures that live in forests primarily with two kinds of trees: gluers and droops. They have ""","""build nests in gluers""",NA,"""text""","""same""",-99,"""generic""",-99,"""Fengnors""","""int4""",NA
1,4722,"""critical""","""fengnor mated pairs""","""build nests in droops""","""have territories at the bottom of deep canyons""","""have territories at the tops of tall mountains""",7,"1","""complex mating habits. They mate for life and the males often bring twigs and leaves to the females ""","""build nests in gluers""",NA,"""text""","""same""",-99,"""generic""",-99,"""Fengnors""","""int4""",NA
1,5084,"""critical""","""fengnor mated pairs""","""build nests in droops""","""have territories at the bottom of deep canyons""","""have territories at the tops of tall mountains""",7,"2","""during courtship. The mated pairs use these twigs and leaves to build their quite elaborate nests in gluers and droops""","""build nests in gluers""",NA,"""text""","""same""",-99,"""generic""",-99,"""Fengnors""","""int4""",NA
1,12480,"""critical""","""fengnor mated pairs""","""build nests in droops""","""build nests in droops""","""build nests in gluers""",7,"null","""""","""build nests in gluers""",NA,"""query""","""same""",0.45,"""generic""",0.55,"""Fengnors""","""int4""",NA
1,1278,"""critical""","""fengnor mated pairs""","""build nests in droops""","""build nests in droops""","""build nests in gluers""",7,"3","""where eggs can be incubated for up to three months.""","""build nests in gluers""",NA,"""text""","""same""",0.45,"""generic""",0.55,"""Fengnors""","""int4""",NA
1,4443,"""filler""","""morseths""","""come on land to find mates""","""build nests in droops""","""build nests in gluers""",8,"0","""The morseth is an animal that lives part of its life in the sea and part of its life on land. Most morseths ""","""build permanent structures called fendles""","""both""","""text""","""same""",-99,"""most""",-99,"""Morseths""","""uninterrupted""","""after"""
1,7269,"""filler""","""morseths""","""come on land to find mates""","""build nests in droops""","""build nests in gluers""",8,"1","""come on land to find mates. Most of the morseths build permanent structures called fendles. Most morseths have webbed feet and ""","""build permanent structures called fendles""","""both""","""text""","""same""",-99,"""most""",-99,"""Morseths""","""uninterrupted""","""after"""
1,2319,"""filler""","""morseths""","""come on land to find mates""","""build nests in droops""","""build nests in gluers""",8,"2","""unwebbed feet, at various points in their life cycles.""","""build permanent structures called fendles""","""both""","""text""","""same""",-99,"""most""",-99,"""Morseths""","""uninterrupted""","""after"""
1,9536,"""filler""","""morseths""","""come on land to find mates""","""come on land to find mates""","""build permanent structures called fendles""",8,"3","""""","""build permanent structures called fendles""","""both""","""query""","""same""",1,"""most""",0.95,"""Morseths""","""uninterrupted""","""after"""
1,4227,"""filler""","""ice storms on Dax""","""last a long time""","""come on land to find mates""","""build permanent structures called fendles""",9,"0","""Occasionally on Dax, there will be tremendous ice storms that freeze over the entire planet. These ice ""","""result in permanent damage to the plants and animals on Dax""","""full""","""text""","""same""",-99,"""none""",-99,"""Weather""","""uninterrupted""","""before"""
1,5390,"""filler""","""ice storms on Dax""","""last a long time""","""come on land to find mates""","""build permanent structures called fendles""",9,"1",""" storms never last long or result in permanent damage to the plants and animals on Dax. However, ""","""result in permanent damage to the plants and animals on Dax""","""full""","""text""","""same""",-99,"""none""",-99,"""Weather""","""uninterrupted""","""before"""
1,2603,"""filler""","""ice storms on Dax""","""last a long time""","""come on land to find mates""","""build permanent structures called fendles""",9,"2",""" they can be quite noisy. They produce strong southerly winds""","""result in permanent damage to the plants and animals on Dax""","""full""","""text""","""same""",-99,"""none""",-99,"""Weather""","""uninterrupted""","""before"""
1,2353,"""filler""","""ice storms on Dax""","""last a long time""","""come on land to find mates""","""build permanent structures called fendles""",9,"3",""" and strong northerly winds, frightening most of the animals on Dax.""","""result in permanent damage to the plants and animals on Dax""","""full""","""text""","""same""",-99,"""none""",-99,"""Weather""","""uninterrupted""","""before"""
1,8221,"""filler""","""ice storms on Dax""","""last a long time""","""last a long time""","""result in permanent damage to the plants and animals on Dax""",9,"4","""""","""result in permanent damage to the plants and animals on Dax""","""full""","""query""","""same""",0.1,"""none""",0,"""Weather""","""uninterrupted""","""before"""
1,3424,"""critical""","""glippets""","""live on the continent of Este""","""last a long time""","""result in permanent damage to the plants and animals on Dax""",10,"0","""The southern continent of Caro and the northern continent of Este are the most populated ones. ""","""live on the continent of Caro""",NA,"""text""","""same""",-99,"""generic""",-99,"""Glippets""","""int2""",NA
1,6071,"""critical""","""glippets""","""live on the continent of Este""","""last a long time""","""result in permanent damage to the plants and animals on Dax""",10,"1","""Glippets are large creatures, quite intelligent, with a life-span of about sixty years. They live on Caro and""","""live on the continent of Caro""",NA,"""text""","""same""",-99,"""generic""",-99,"""Glippets""","""int2""",NA
1,15444,"""critical""","""glippets""","""live on the continent of Este""","""live on the continent of Este""","""live on the continent of Caro""",10,"null","""""","""live on the continent of Caro""",NA,"""query""","""same""",0,"""generic""",1,"""Glippets""","""int2""",NA
1,1435,"""critical""","""glippets""","""live on the continent of Este""","""live on the continent of Este""","""live on the continent of Caro""",10,"2","""enjoy the sunshine there.""","""live on the continent of Caro""",NA,"""text""","""same""",0,"""generic""",1,"""Glippets""","""int2""",NA
1,6431,"""filler""","""aliens""","""admire Wint""","""live on the continent of Este""","""live on the continent of Caro""",11,"0","""Wint lived a long time ago in the mountains.  But all aliens remember Wint and admire him because he ""","""remember Wint""","""interruption""","""text""","""same""",-99,"""all""",-99,"""Wint of the Mountains""","""uninterrupted""","""after"""
1,9088,"""filler""","""aliens""","""admire Wint""","""live on the continent of Este""","""live on the continent of Caro""",11,"1","""was the one that found the lost city of Baff. While he wasn&quotechart exploring, Wint stayed in his village in the mountains. He was a hunter and ""","""remember Wint""","""interruption""","""text""","""same""",-99,"""all""",-99,"""Wint of the Mountains""","""uninterrupted""","""after"""
1,882,"""filler""","""aliens""","""admire Wint""","""live on the continent of Este""","""live on the continent of Caro""",11,"2","""a blacksmith.""","""remember Wint""","""interruption""","""text""","""same""",-99,"""all""",-99,"""Wint of the Mountains""","""uninterrupted""","""after"""
1,7076,"""filler""","""aliens""","""admire Wint""","""admire Wint""","""remember Wint""",11,"3","""""","""remember Wint""","""interruption""","""query""","""same""",0.85,"""all""",0.75,"""Wint of the Mountains""","""uninterrupted""","""after"""
1,13967,"""critical""","""farmers in the springtime""","""plant soroneeks""","""admire Wint""","""remember Wint""",12,"0","""The soil on the continent of Aga is very fertile, and the aliens have learned to grow many crops.""","""plant fujusi""",NA,"""text""","""same""",-99,"""generic""",-99,"""Agriculture""","""after""",NA
1,6500,"""critical""","""farmers in the springtime""","""plant soroneeks""","""admire Wint""","""remember Wint""",12,"1","""Two crops called fujusi and sornoeeks are the most popular, but they are difficult to grow. However, ""","""plant fujusi""",NA,"""text""","""same""",-99,"""generic""",-99,"""Agriculture""","""after""",NA
1,5275,"""critical""","""farmers in the springtime""","""plant soroneeks""","""admire Wint""","""remember Wint""",12,"2","""farmers only grow one type of crop to increase their profits when selling. During the springtime, the aliens flood their fields in order to plant fujusi and""","""plant fujusi""",NA,"""text""","""same""",-99,"""generic""",-99,"""Agriculture""","""after""",NA
1,1411,"""critical""","""farmers in the springtime""","""plant soroneeks""","""admire Wint""","""remember Wint""",12,"3","""and spray them with a naturally-occurring fertilizer.""","""plant fujusi""",NA,"""text""","""same""",-99,"""generic""",-99,"""Agriculture""","""after""",NA
1,13460,"""critical""","""farmers in the springtime""","""plant soroneeks""","""plant soroneeks""","""plant fujusi""",12,"4","""""","""plant fujusi""",NA,"""query""","""reverse""",0.09,"""generic""",0.85,"""Agriculture""","""after""",NA
1,5915,"""critical""","""isooms""","""produce fruit with smooth skin""","""plant soroneeks""","""plant fujusi""",13,"0","""Isooms are tree-like plants that are found in hilly regions of Fale. Their fruit is edible, and the aliens often ""","""produce fruit with bumpy skin""",NA,"""text""","""reverse""",-99,"""generic""",-99,"""Isooms""","""int1""",NA
1,6195,"""critical""","""isooms""","""produce fruit with smooth skin""","""plant soroneeks""","""plant fujusi""",13,"1","""cultivate isooms for food. The fruit that isooms produce has skin which is bumpy""","""produce fruit with bumpy skin""",NA,"""text""","""reverse""",-99,"""generic""",-99,"""Isooms""","""int1""",NA
1,5002,"""critical""","""isooms""","""produce fruit with smooth skin""","""produce fruit with smooth skin""","""produce fruit with bumpy skin""",13,"null","""""","""produce fruit with bumpy skin""",NA,"""query""","""reverse""",0,"""generic""",1,"""Isooms""","""int1""",NA
1,1078,"""critical""","""isooms""","""produce fruit with smooth skin""","""produce fruit with smooth skin""","""produce fruit with bumpy skin""",13,"2","""and prefer to grow in the shade.""","""produce fruit with bumpy skin""",NA,"""text""","""reverse""",0,"""generic""",1,"""Isooms""","""int1""",NA
1,8083,"""critical""","""reesles""","""wear the shells of krevnors around their heads""","""produce fruit with smooth skin""","""produce fruit with bumpy skin""",14,"0","""Reesles are small, furry creatures, often found in the homes of the aliens. The aliens keep the shells of ""","""wear the shells of wutsats around their heads""",NA,"""text""","""reverse""",-99,"""generic""",-99,"""Reesles""","""before""",NA
1,3394,"""critical""","""reesles""","""wear the shells of krevnors around their heads""","""produce fruit with smooth skin""","""produce fruit with bumpy skin""",14,"1","""large insects called wutsats and krevnors for household purposes. Reesles will steal things from ""","""wear the shells of wutsats around their heads""",NA,"""text""","""reverse""",-99,"""generic""",-99,"""Reesles""","""before""",NA
1,3896,"""critical""","""reesles""","""wear the shells of krevnors around their heads""","""produce fruit with smooth skin""","""produce fruit with bumpy skin""",14,"2","""the houses of aliens and wear them as their own clothing. Around their heads, reesles wear the shells of wutsats""","""wear the shells of wutsats around their heads""",NA,"""text""","""reverse""",-99,"""generic""",-99,"""Reesles""","""before""",NA
1,1168,"""critical""","""reesles""","""wear the shells of krevnors around their heads""","""produce fruit with smooth skin""","""produce fruit with bumpy skin""",14,"3","""and carry sticks with them.""","""wear the shells of wutsats around their heads""",NA,"""text""","""reverse""",-99,"""generic""",-99,"""Reesles""","""before""",NA
1,17775,"""critical""","""reesles""","""wear the shells of krevnors around their heads""","""wear the shells of krevnors around their heads""","""wear the shells of wutsats around their heads""",14,"4","""""","""wear the shells of wutsats around their heads""",NA,"""query""","""reverse""",0.05,"""generic""",0.9,"""Reesles""","""before""",NA
1,4085,"""critical""","""basket weavers""","""are part of the Farzaguild""","""wear the shells of krevnors around their heads""","""wear the shells of wutsats around their heads""",15,"0","""The aliens have many kinds of specialized skills---like basket weaving---and have established trade guilds around these ""","""are part of the Tinnoclan""",NA,"""text""","""reverse""",-99,"""generic""",-99,"""Crafts""","""int1""",NA
1,3182,"""critical""","""basket weavers""","""are part of the Farzaguild""","""wear the shells of krevnors around their heads""","""wear the shells of wutsats around their heads""",15,"1","""skills, such as the Tinnoclan and Farzaguild. Crafters are found all over Dax, but are especially""","""are part of the Tinnoclan""",NA,"""text""","""reverse""",-99,"""generic""",-99,"""Crafts""","""int1""",NA
1,4802,"""critical""","""basket weavers""","""are part of the Farzaguild""","""wear the shells of krevnors around their heads""","""wear the shells of wutsats around their heads""",15,"2","""common in the city of Rondoo, where aliens from all over go to buy luxury goods. Basket weavers can be found in the Tinnoclan""","""are part of the Tinnoclan""",NA,"""text""","""reverse""",-99,"""generic""",-99,"""Crafts""","""int1""",NA
1,5927,"""critical""","""basket weavers""","""are part of the Farzaguild""","""are part of the Farzaguild""","""are part of the Tinnoclan""",15,"null","""""","""are part of the Tinnoclan""",NA,"""query""","""reverse""",0,"""generic""",1,"""Crafts""","""int1""",NA
1,2186,"""critical""","""basket weavers""","""are part of the Farzaguild""","""are part of the Farzaguild""","""are part of the Tinnoclan""",15,"3","""and pledge allegiance to Tinnius the Elder.""","""are part of the Tinnoclan""",NA,"""text""","""reverse""",0,"""generic""",1,"""Crafts""","""int1""",NA
1,10680,"""critical""","""vimble queens""","""hibernate in the abandoned burrows of other animals""","""are part of the Farzaguild""","""are part of the Tinnoclan""",16,"0","""Finding a safe place to hibernate is difficult on Dax, but fallen logs and burrows abandoned by other animals are good options. ""","""hibernate in fallen logs""",NA,"""text""","""reverse""",-99,"""generic""",-99,"""Vimbles""","""before""",NA
1,5521,"""critical""","""vimble queens""","""hibernate in the abandoned burrows of other animals""","""are part of the Farzaguild""","""are part of the Tinnoclan""",16,"1","""Vimbles are social insects that live in colonies of up to a thousand individuals. Vimbles live for a year or less. They have a single ""","""hibernate in fallen logs""",NA,"""text""","""reverse""",-99,"""generic""",-99,"""Vimbles""","""before""",NA
1,5314,"""critical""","""vimble queens""","""hibernate in the abandoned burrows of other animals""","""are part of the Farzaguild""","""are part of the Tinnoclan""",16,"2","""queen, who must find somewhere to hibernate over the winter before  starting a new colony. Vimble queens hibernate in fallen logs""","""hibernate in fallen logs""",NA,"""text""","""reverse""",-99,"""generic""",-99,"""Vimbles""","""before""",NA
1,1398,"""critical""","""vimble queens""","""hibernate in the abandoned burrows of other animals""","""are part of the Farzaguild""","""are part of the Tinnoclan""",16,"3","""and give birth twice a year.""","""hibernate in fallen logs""",NA,"""text""","""reverse""",-99,"""generic""",-99,"""Vimbles""","""before""",NA
1,17221,"""critical""","""vimble queens""","""hibernate in the abandoned burrows of other animals""","""hibernate in the abandoned burrows of other animals""","""hibernate in fallen logs""",16,"4","""""","""hibernate in fallen logs""",NA,"""query""","""same""",0.15,"""generic""",0.85,"""Vimbles""","""before""",NA
1,4485,"""critical""","""aliens""","""ascribe to Daithism""","""hibernate in the abandoned burrows of other animals""","""hibernate in fallen logs""",17,"0","""The aliens have two dominant religions: Cabooism and Daithism. The Ludinos are an alien tribe. ""","""ascribe to Cabooism""",NA,"""text""","""same""",-99,"""generic""",-99,"""Religion""","""int2""",NA
1,3152,"""critical""","""aliens""","""ascribe to Daithism""","""hibernate in the abandoned burrows of other animals""","""hibernate in fallen logs""",17,"1","""They are very industrious and live on all of the seven continents, and they all are highly spiritual. They ascribe to Cabooism and""","""ascribe to Cabooism""",NA,"""text""","""same""",-99,"""generic""",-99,"""Religion""","""int2""",NA
1,7447,"""critical""","""aliens""","""ascribe to Daithism""","""ascribe to Daithism""","""ascribe to Cabooism""",17,"null","""""","""ascribe to Cabooism""",NA,"""query""","""reverse""",0.5,"""generic""",0.5,"""Religion""","""int2""",NA
1,1434,"""critical""","""aliens""","""ascribe to Daithism""","""ascribe to Daithism""","""ascribe to Cabooism""",17,"2","""follow a strict code of laws.""","""ascribe to Cabooism""",NA,"""text""","""reverse""",0.5,"""generic""",0.5,"""Religion""","""int2""",NA
2,49203,"""filler""","""NA""","""NA""",NA,NA,0,"0","""Dax is a lot like Earth.  It has seven continents in similar places, but instead of Africa, Europe, Asia, Australia, Antarctica and North ""","""NA""",NA,"""text""",NA,-99,"""generic""",-99,"""An introduction to Dax""","""uninterrupted""",NA
2,716,"""filler""","""NA""","""NA""",NA,NA,0,"1",""" and South America, the continents are called  Aga,  Benli, Caro, Dodi, Ente, Fale, and Gomi. Its climate is a lot like Earth&quotechars, too. But the""","""NA""",NA,"""text""",NA,-99,"""generic""",-99,"""An introduction to Dax""","""uninterrupted""",NA
2,663,"""filler""","""NA""","""NA""",NA,NA,0,"2","""  plants and animals of Dax are quite different.""","""NA""",NA,"""text""",NA,-99,"""generic""",-99,"""An introduction to Dax""","""uninterrupted""",NA
2,967,"""critical""","""fengnor mated pairs""","""build nests in droops""",NA,NA,1,"0","""Fengnors are smaller, nocturnal creatures that live in forests primarily with two kinds of trees: gluers and droops. They have ""","""build nests in gluers""",NA,"""text""",NA,-99,"""generic""",-99,"""Fengnors""","""before""",NA
2,822,"""critical""","""fengnor mated pairs""","""build nests in droops""",NA,NA,1,"1","""complex mating habits. They mate for life and the males often bring twigs and leaves to the females ""","""build nests in gluers""",NA,"""text""",NA,-99,"""generic""",-99,"""Fengnors""","""before""",NA
2,574,"""critical""","""fengnor mated pairs""","""build nests in droops""",NA,NA,1,"2","""during courtship. The mated pairs use these twigs and leaves to build their quite elaborate nests in gluers""","""build nests in gluers""",NA,"""text""",NA,-99,"""generic""",-99,"""Fengnors""","""before""",NA
2,726,"""critical""","""fengnor mated pairs""","""build nests in droops""",NA,NA,1,"3","""and and store tree-bark in them for safe keeping.""","""build nests in gluers""",NA,"""text""",NA,-99,"""generic""",-99,"""Fengnors""","""before""",NA
2,2588,"""critical""","""fengnor mated pairs""","""build nests in droops""","""build nests in droops""","""build nests in gluers""",1,"4","""""","""build nests in gluers""",NA,"""query""","""reverse""",0.74,"""generic""",0.58,"""Fengnors""","""before""",NA
2,692,"""critical""","""basket weavers""","""are part of the Farzaguild""","""build nests in droops""","""build nests in gluers""",2,"0","""The aliens have many kinds of specialized skills---like basket weaving---and have established trade guilds around these ""","""are part of the Tinnoclan""",NA,"""text""","""reverse""",-99,"""generic""",-99,"""Crafts""","""after""",NA
2,570,"""critical""","""basket weavers""","""are part of the Farzaguild""","""build nests in droops""","""build nests in gluers""",2,"1","""skills, such as the Tinnoclan and Farzaguild. Crafters are found all over Dax, but are especially""","""are part of the Tinnoclan""",NA,"""text""","""reverse""",-99,"""generic""",-99,"""Crafts""","""after""",NA
2,584,"""critical""","""basket weavers""","""are part of the Farzaguild""","""build nests in droops""","""build nests in gluers""",2,"2","""common in the city of Rondoo, where aliens from all over go to buy luxury goods. Basket weavers can be found in the Tinnoclan and""","""are part of the Tinnoclan""",NA,"""text""","""reverse""",-99,"""generic""",-99,"""Crafts""","""after""",NA
2,862,"""critical""","""basket weavers""","""are part of the Farzaguild""","""build nests in droops""","""build nests in gluers""",2,"3","""and sell their baskets in the Warfi marketplace.""","""are part of the Tinnoclan""",NA,"""text""","""reverse""",-99,"""generic""",-99,"""Crafts""","""after""",NA
2,1885,"""critical""","""basket weavers""","""are part of the Farzaguild""","""are part of the Farzaguild""","""are part of the Tinnoclan""",2,"4","""""","""are part of the Tinnoclan""",NA,"""query""","""reverse""",0.55,"""generic""",0.34,"""Crafts""","""after""",NA
2,873,"""filler""","""yomis""","""fly towards the mountains in search of food""","""are part of the Farzaguild""","""are part of the Tinnoclan""",3,"0","""Yomis are small, fast insect-like creatures. They all live in the ""","""live in the borderland woodlands""","""both""","""text""","""reverse""",-99,"""all""",-99,"""Yomis""","""interrupted""","""after"""
2,366,"""filler""","""yomis""","""fly towards the mountains in search of food""","""are part of the Farzaguild""","""are part of the Tinnoclan""",3,"1","""borderland woodlands and they all fly towards the mountains in search of food. Yomis have a single  ""","""live in the borderland woodlands""","""both""","""text""","""reverse""",-99,"""all""",-99,"""Yomis""","""interrupted""","""after"""
2,343,"""filler""","""yomis""","""fly towards the mountains in search of food""","""are part of the Farzaguild""","""are part of the Tinnoclan""",3,"2","""mouthpart for grabbing food, usually from yellow flowers. Their mouthparts are long and ""","""live in the borderland woodlands""","""both""","""text""","""reverse""",-99,"""all""",-99,"""Yomis""","""interrupted""","""after"""
2,2076,"""filler""","""yomis""","""fly towards the mountains in search of food""","""fly towards the mountains in search of food""","""live in the borderland woodlands""",3,"null","""""","""live in the borderland woodlands""","""both""","""query""","""same""",0.54,"""all""",0.62,"""Yomis""","""interrupted""","""after"""
2,894,"""filler""","""yomis""","""fly towards the mountains in search of food""","""fly towards the mountains in search of food""","""live in the borderland woodlands""",3,"3","""short, which makes them suited for different types of food.""","""live in the borderland woodlands""","""both""","""text""","""same""",0.54,"""all""",0.62,"""Yomis""","""interrupted""","""after"""
2,681,"""filler""","""plovs""","""are attacked by other creatures""","""fly towards the mountains in search of food""","""live in the borderland woodlands""",4,"0","""No plovs live on the continent of Aga; instead, in they all live on""","""live in the continent of Aga""","""both""","""text""","""same""",-99,"""none""",-99,"""Plovs""","""interrupted""","""before"""
2,1272,"""filler""","""plovs""","""are attacked by other creatures""","""fly towards the mountains in search of food""","""live in the borderland woodlands""",4,"1","""Caro. Since they have their own territory, they are never attacked by other, larger creatures and ""","""live in the continent of Aga""","""both""","""text""","""same""",-99,"""none""",-99,"""Plovs""","""interrupted""","""before"""
2,857,"""filler""","""plovs""","""are attacked by other creatures""","""fly towards the mountains in search of food""","""live in the borderland woodlands""",4,"2","""live happily near water. Their herds are large but have a single leader. The leaders are the oldest female ""","""live in the continent of Aga""","""both""","""text""","""same""",-99,"""none""",-99,"""Plovs""","""interrupted""","""before"""
2,2892,"""filler""","""plovs""","""are attacked by other creatures""","""are attacked by other creatures""","""live in the continent of Aga""",4,"null","""""","""live in the continent of Aga""","""both""","""query""","""same""",0.57,"""none""",0.58,"""Plovs""","""interrupted""","""before"""
2,635,"""filler""","""plovs""","""are attacked by other creatures""","""are attacked by other creatures""","""live in the continent of Aga""",4,"3","""and the oldest male.""","""live in the continent of Aga""","""both""","""text""","""same""",0.57,"""none""",0.58,"""Plovs""","""interrupted""","""before"""
2,989,"""critical""","""aliens""","""ascribe to Daithism""","""are attacked by other creatures""","""live in the continent of Aga""",5,"0","""The aliens have two dominant religions: Cabooism and Daithism. The Ludinos are an alien tribe. ""","""ascribe to Cabooism""",NA,"""text""","""same""",-99,"""generic""",-99,"""Religion""","""after""",NA
2,985,"""critical""","""aliens""","""ascribe to Daithism""","""are attacked by other creatures""","""live in the continent of Aga""",5,"1","""They are very industrious and live on all of the seven continents, and they all are highly spiritual. They ascribe to Cabooism and""","""ascribe to Cabooism""",NA,"""text""","""same""",-99,"""generic""",-99,"""Religion""","""after""",NA
2,699,"""critical""","""aliens""","""ascribe to Daithism""","""are attacked by other creatures""","""live in the continent of Aga""",5,"2","""and pray three times a day.""","""ascribe to Cabooism""",NA,"""text""","""same""",-99,"""generic""",-99,"""Religion""","""after""",NA
2,2539,"""critical""","""aliens""","""ascribe to Daithism""","""ascribe to Daithism""","""ascribe to Cabooism""",5,"3","""""","""ascribe to Cabooism""",NA,"""query""","""same""",0.39,"""generic""",0.43,"""Religion""","""after""",NA
2,858,"""critical""","""reesles""","""wear the shells of krevnors around their heads""","""ascribe to Daithism""","""ascribe to Cabooism""",6,"0","""Reesles are small, furry creatures, often found in the homes of the aliens. The aliens keep the shells of ""","""wear the shells of wutsats around their heads""",NA,"""text""","""same""",-99,"""generic""",-99,"""Reesles""","""int1""",NA
2,538,"""critical""","""reesles""","""wear the shells of krevnors around their heads""","""ascribe to Daithism""","""ascribe to Cabooism""",6,"1","""large insects called wutsats and krevnors for household purposes. Reesles will steal things from ""","""wear the shells of wutsats around their heads""",NA,"""text""","""same""",-99,"""generic""",-99,"""Reesles""","""int1""",NA
2,666,"""critical""","""reesles""","""wear the shells of krevnors around their heads""","""ascribe to Daithism""","""ascribe to Cabooism""",6,"2","""the houses of aliens and wear them as their own clothing. Around their heads, reesles wear the shells of wutsats""","""wear the shells of wutsats around their heads""",NA,"""text""","""same""",-99,"""generic""",-99,"""Reesles""","""int1""",NA
2,1660,"""critical""","""reesles""","""wear the shells of krevnors around their heads""","""wear the shells of krevnors around their heads""","""wear the shells of wutsats around their heads""",6,"null","""""","""wear the shells of wutsats around their heads""",NA,"""query""","""reverse""",0.65,"""generic""",0.58,"""Reesles""","""int1""",NA
2,714,"""critical""","""reesles""","""wear the shells of krevnors around their heads""","""wear the shells of krevnors around their heads""","""wear the shells of wutsats around their heads""",6,"3","""and roam around by themselves at night.""","""wear the shells of wutsats around their heads""",NA,"""text""","""reverse""",0.65,"""generic""",0.58,"""Reesles""","""int1""",NA
2,846,"""critical""","""farmers in the springtime""","""plant soroneeks""","""wear the shells of krevnors around their heads""","""wear the shells of wutsats around their heads""",7,"0","""The soil on the continent of Aga is very fertile, and the aliens have learned to grow many crops.""","""plant fujusi""",NA,"""text""","""reverse""",-99,"""generic""",-99,"""Agriculture""","""before""",NA
2,803,"""critical""","""farmers in the springtime""","""plant soroneeks""","""wear the shells of krevnors around their heads""","""wear the shells of wutsats around their heads""",7,"1","""Two crops called fujusi and sornoeeks are the most popular, but they are difficult to grow. However, ""","""plant fujusi""",NA,"""text""","""reverse""",-99,"""generic""",-99,"""Agriculture""","""before""",NA
2,1232,"""critical""","""farmers in the springtime""","""plant soroneeks""","""wear the shells of krevnors around their heads""","""wear the shells of wutsats around their heads""",7,"2","""farmers only grow one type of crop to increase their profits when selling. During the springtime, the aliens flood their fields in order to plant fujusi""","""plant fujusi""",NA,"""text""","""reverse""",-99,"""generic""",-99,"""Agriculture""","""before""",NA
2,681,"""critical""","""farmers in the springtime""","""plant soroneeks""","""wear the shells of krevnors around their heads""","""wear the shells of wutsats around their heads""",7,"3","""and spray them with a naturally-occurring fertilizer.""","""plant fujusi""",NA,"""text""","""reverse""",-99,"""generic""",-99,"""Agriculture""","""before""",NA
2,1964,"""critical""","""farmers in the springtime""","""plant soroneeks""","""plant soroneeks""","""plant fujusi""",7,"4","""""","""plant fujusi""",NA,"""query""","""reverse""",0.45,"""generic""",0.39,"""Agriculture""","""before""",NA
2,649,"""critical""","""isooms""","""produce fruit with smooth skin""","""plant soroneeks""","""plant fujusi""",8,"0","""Isooms are tree-like plants that are found in hilly regions of Fale. Their fruit is edible, and the aliens often ""","""produce fruit with bumpy skin""",NA,"""text""","""reverse""",-99,"""generic""",-99,"""Isooms""","""int2""",NA
2,772,"""critical""","""isooms""","""produce fruit with smooth skin""","""plant soroneeks""","""plant fujusi""",8,"1","""cultivate isooms for food. The fruit that isooms produce has skin which is bumpy and""","""produce fruit with bumpy skin""",NA,"""text""","""reverse""",-99,"""generic""",-99,"""Isooms""","""int2""",NA
2,2839,"""critical""","""isooms""","""produce fruit with smooth skin""","""produce fruit with smooth skin""","""produce fruit with bumpy skin""",8,"null","""""","""produce fruit with bumpy skin""",NA,"""query""","""reverse""",0.64,"""generic""",0.58,"""Isooms""","""int2""",NA
2,630,"""critical""","""isooms""","""produce fruit with smooth skin""","""produce fruit with smooth skin""","""produce fruit with bumpy skin""",8,"2","""prefer to grow in the shade.""","""produce fruit with bumpy skin""",NA,"""text""","""reverse""",0.64,"""generic""",0.58,"""Isooms""","""int2""",NA
2,901,"""filler""","""ice storms on Dax""","""last a long time""","""produce fruit with smooth skin""","""produce fruit with bumpy skin""",9,"0","""Occasionally on Dax, there will be tremendous ice storms that freeze over the entire planet. These ice ""","""result in permanent damage to the plants and animals on Dax""","""full""","""text""","""reverse""",-99,"""none""",-99,"""Weather""","""uninterrupted""","""before"""
2,528,"""filler""","""ice storms on Dax""","""last a long time""","""produce fruit with smooth skin""","""produce fruit with bumpy skin""",9,"1",""" storms never last long or result in permanent damage to the plants and animals on Dax. However, ""","""result in permanent damage to the plants and animals on Dax""","""full""","""text""","""reverse""",-99,"""none""",-99,"""Weather""","""uninterrupted""","""before"""
2,987,"""filler""","""ice storms on Dax""","""last a long time""","""produce fruit with smooth skin""","""produce fruit with bumpy skin""",9,"2",""" they can be quite noisy. They produce strong southerly winds""","""result in permanent damage to the plants and animals on Dax""","""full""","""text""","""reverse""",-99,"""none""",-99,"""Weather""","""uninterrupted""","""before"""
2,529,"""filler""","""ice storms on Dax""","""last a long time""","""produce fruit with smooth skin""","""produce fruit with bumpy skin""",9,"3",""" and strong northerly winds, frightening most of the animals on Dax.""","""result in permanent damage to the plants and animals on Dax""","""full""","""text""","""reverse""",-99,"""none""",-99,"""Weather""","""uninterrupted""","""before"""
2,2074,"""filler""","""ice storms on Dax""","""last a long time""","""last a long time""","""result in permanent damage to the plants and animals on Dax""",9,"4","""""","""result in permanent damage to the plants and animals on Dax""","""full""","""query""","""reverse""",0.76,"""none""",0.56,"""Weather""","""uninterrupted""","""before"""
2,999,"""critical""","""Krens""","""are fishermen""","""last a long time""","""result in permanent damage to the plants and animals on Dax""",10,"0","""All over Dax, the aliens love to herd animals and fish the seas. Krens are a tribe of the aliens that live on ""","""are stup-herders""",NA,"""text""","""reverse""",-99,"""generic""",-99,"""Finding food""","""int1""",NA
2,758,"""critical""","""Krens""","""are fishermen""","""last a long time""","""result in permanent damage to the plants and animals on Dax""",10,"1","""the continent of Benli where stups, four-legged creatures with large antlers, roam all over the windy ""","""are stup-herders""",NA,"""text""","""reverse""",-99,"""generic""",-99,"""Finding food""","""int1""",NA
2,522,"""critical""","""Krens""","""are fishermen""","""last a long time""","""result in permanent damage to the plants and animals on Dax""",10,"2","""highlands, very far from the sea. Krens are stup-herders""","""are stup-herders""",NA,"""text""","""reverse""",-99,"""generic""",-99,"""Finding food""","""int1""",NA
2,1770,"""critical""","""Krens""","""are fishermen""","""are fishermen""","""are stup-herders""",10,"null","""""","""are stup-herders""",NA,"""query""","""same""",0.45,"""generic""",0.53,"""Finding food""","""int1""",NA
2,828,"""critical""","""Krens""","""are fishermen""","""are fishermen""","""are stup-herders""",10,"3","""and incorporate stups into their religion.""","""are stup-herders""",NA,"""text""","""same""",0.45,"""generic""",0.53,"""Finding food""","""int1""",NA
2,610,"""critical""","""oller families""","""carry their young in trullets""","""are fishermen""","""are stup-herders""",11,"0","""Ollers spend most of their lives in water, but occasionally come on land to gather berries. On land, one can find tools made by""","""carry their young in guklags""",NA,"""text""","""same""",-99,"""generic""",-99,"""Ollers""","""before""",NA
2,443,"""critical""","""oller families""","""carry their young in trullets""","""are fishermen""","""are stup-herders""",11,"1","""other animals, such as guklags and trullets, but ollers are very wary of trying new things. Baby ollers find it very exciting to be on land,""","""carry their young in guklags""",NA,"""text""","""same""",-99,"""generic""",-99,"""Ollers""","""before""",NA
2,403,"""critical""","""oller families""","""carry their young in trullets""","""are fishermen""","""are stup-herders""",11,"2",""" though they have trouble walking and need to be carried by family members. While on land, ollers carry their young in guklags""","""carry their young in guklags""",NA,"""text""","""same""",-99,"""generic""",-99,"""Ollers""","""before""",NA
2,860,"""critical""","""oller families""","""carry their young in trullets""","""are fishermen""","""are stup-herders""",11,"3","""and are very protective.""","""carry their young in guklags""",NA,"""text""","""same""",-99,"""generic""",-99,"""Ollers""","""before""",NA
2,2369,"""critical""","""oller families""","""carry their young in trullets""","""carry their young in trullets""","""carry their young in guklags""",11,"4","""""","""carry their young in guklags""",NA,"""query""","""same""",0.54,"""generic""",0.44,"""Ollers""","""before""",NA
2,802,"""critical""","""mooks""","""have territories at the bottom of deep canyons""","""carry their young in trullets""","""carry their young in guklags""",12,"0","""Mooks are ferocious creatures that live on the continent of Benli. Benli has dramatic elevation changes ""","""have territories at the tops of tall mountains""",NA,"""text""","""same""",-99,"""generic""",-99,"""Mooks""","""int4""",NA
2,671,"""critical""","""mooks""","""have territories at the bottom of deep canyons""","""carry their young in trullets""","""carry their young in guklags""",12,"1","""unlike any other continent, with tall mountains and deep canyons. Animals find terrorities in ""","""have territories at the tops of tall mountains""",NA,"""text""","""same""",-99,"""generic""",-99,"""Mooks""","""int4""",NA
2,965,"""critical""","""mooks""","""have territories at the bottom of deep canyons""","""carry their young in trullets""","""carry their young in guklags""",12,"2","""locations that will maximize their chances of survival. Mooks have territories at the tops of tall mountains and at the bottom of deep canyons""","""have territories at the tops of tall mountains""",NA,"""text""","""same""",-99,"""generic""",-99,"""Mooks""","""int4""",NA
2,2398,"""critical""","""mooks""","""have territories at the bottom of deep canyons""","""have territories at the bottom of deep canyons""","""have territories at the tops of tall mountains""",12,"null","""""","""have territories at the tops of tall mountains""",NA,"""query""","""reverse""",0.74,"""generic""",0.61,"""Mooks""","""int4""",NA
2,660,"""critical""","""mooks""","""have territories at the bottom of deep canyons""","""have territories at the bottom of deep canyons""","""have territories at the tops of tall mountains""",12,"3","""where not many other predators venture.""","""have territories at the tops of tall mountains""",NA,"""text""","""reverse""",0.74,"""generic""",0.61,"""Mooks""","""int4""",NA
2,1217,"""filler""","""aliens""","""are provided for by Zorxon""","""have territories at the bottom of deep canyons""","""have territories at the tops of tall mountains""",13,"0","""Zorxon is the overlord of Dax.  Everyone loves Zorxon because she ""","""love Zorxon""","""full""","""text""","""reverse""",-99,"""all""",-99,"""Zorxon, overlord of Dax""","""uninterrupted""","""before"""
2,653,"""filler""","""aliens""","""are provided for by Zorxon""","""have territories at the bottom of deep canyons""","""have territories at the tops of tall mountains""",13,"1","""provides for all the aliens of Dax. Throughout her life, she traveled continuously throughout the seven continents to meet her subjects ""","""love Zorxon""","""full""","""text""","""reverse""",-99,"""all""",-99,"""Zorxon, overlord of Dax""","""uninterrupted""","""before"""
2,526,"""filler""","""aliens""","""are provided for by Zorxon""","""have territories at the bottom of deep canyons""","""have territories at the tops of tall mountains""",13,"2","""and held court on her home continent of Ente, where all the aliens could come speak to her.""","""love Zorxon""","""full""","""text""","""reverse""",-99,"""all""",-99,"""Zorxon, overlord of Dax""","""uninterrupted""","""before"""
2,3112,"""filler""","""aliens""","""are provided for by Zorxon""","""are provided for by Zorxon""","""love Zorxon""",13,"3","""""","""love Zorxon""","""full""","""query""","""same""",0.43,"""all""",0.56,"""Zorxon, overlord of Dax""","""uninterrupted""","""before"""
2,865,"""critical""","""glippets""","""live on the continent of Este""","""are provided for by Zorxon""","""love Zorxon""",14,"0","""The southern continent of Caro and the northern continent of Este are the most populated ones. ""","""live on the continent of Caro""",NA,"""text""","""same""",-99,"""generic""",-99,"""Glippets""","""int4""",NA
2,973,"""critical""","""glippets""","""live on the continent of Este""","""are provided for by Zorxon""","""love Zorxon""",14,"1","""Glippets are large creatures, quite intelligent, with a life-span of about sixty years. They live on Caro and Este""","""live on the continent of Caro""",NA,"""text""","""same""",-99,"""generic""",-99,"""Glippets""","""int4""",NA
2,1890,"""critical""","""glippets""","""live on the continent of Este""","""live on the continent of Este""","""live on the continent of Caro""",14,"null","""""","""live on the continent of Caro""",NA,"""query""","""same""",0.51,"""generic""",0.66,"""Glippets""","""int4""",NA
2,524,"""critical""","""glippets""","""live on the continent of Este""","""live on the continent of Este""","""live on the continent of Caro""",14,"2","""which are quite different from each other.""","""live on the continent of Caro""",NA,"""text""","""same""",0.51,"""generic""",0.66,"""Glippets""","""int4""",NA
2,792,"""critical""","""vimble queens""","""hibernate in the abandoned burrows of other animals""","""live on the continent of Este""","""live on the continent of Caro""",15,"0","""Finding a safe place to hibernate is difficult on Dax, but fallen logs and burrows abandoned by other animals are good options. ""","""hibernate in fallen logs""",NA,"""text""","""same""",-99,"""generic""",-99,"""Vimbles""","""after""",NA
2,609,"""critical""","""vimble queens""","""hibernate in the abandoned burrows of other animals""","""live on the continent of Este""","""live on the continent of Caro""",15,"1","""Vimbles are social insects that live in colonies of up to a thousand individuals. Vimbles live for a year or less. They have a single ""","""hibernate in fallen logs""",NA,"""text""","""same""",-99,"""generic""",-99,"""Vimbles""","""after""",NA
2,594,"""critical""","""vimble queens""","""hibernate in the abandoned burrows of other animals""","""live on the continent of Este""","""live on the continent of Caro""",15,"2","""queen, who must find somewhere to hibernate over the winter before  starting a new colony. Vimble queens hibernate in fallen logs and""","""hibernate in fallen logs""",NA,"""text""","""same""",-99,"""generic""",-99,"""Vimbles""","""after""",NA
2,640,"""critical""","""vimble queens""","""hibernate in the abandoned burrows of other animals""","""live on the continent of Este""","""live on the continent of Caro""",15,"3","""and give birth twice a year.""","""hibernate in fallen logs""",NA,"""text""","""same""",-99,"""generic""",-99,"""Vimbles""","""after""",NA
2,1839,"""critical""","""vimble queens""","""hibernate in the abandoned burrows of other animals""","""hibernate in the abandoned burrows of other animals""","""hibernate in fallen logs""",15,"4","""""","""hibernate in fallen logs""",NA,"""query""","""same""",0.4,"""generic""",0.58,"""Vimbles""","""after""",NA
2,712,"""filler""","""morseths""","""come on land to find mates""","""hibernate in the abandoned burrows of other animals""","""hibernate in fallen logs""",16,"0","""The morseth is an animal that lives part of its life in the sea and part of its life on land. Most morseths ""","""build permanent structures called fendles""","""both""","""text""","""same""",-99,"""most""",-99,"""Morseths""","""uninterrupted""","""after"""
2,548,"""filler""","""morseths""","""come on land to find mates""","""hibernate in the abandoned burrows of other animals""","""hibernate in fallen logs""",16,"1","""come on land to find mates. Most of the morseths build permanent structures called fendles. Most morseths have webbed feet and ""","""build permanent structures called fendles""","""both""","""text""","""same""",-99,"""most""",-99,"""Morseths""","""uninterrupted""","""after"""
2,862,"""filler""","""morseths""","""come on land to find mates""","""hibernate in the abandoned burrows of other animals""","""hibernate in fallen logs""",16,"2","""unwebbed feet, at various points in their life cycles.""","""build permanent structures called fendles""","""both""","""text""","""same""",-99,"""most""",-99,"""Morseths""","""uninterrupted""","""after"""
2,1896,"""filler""","""morseths""","""come on land to find mates""","""come on land to find mates""","""build permanent structures called fendles""",16,"3","""""","""build permanent structures called fendles""","""both""","""query""","""reverse""",0.48,"""most""",0.68,"""Morseths""","""uninterrupted""","""after"""
2,681,"""critical""","""kweps""","""chew on tunkel bark""","""come on land to find mates""","""build permanent structures called fendles""",17,"0","""Kweps live in forests made up of xorfun trees and tunkel trees. The bark  of xorfun trees tastes very ""","""chew on xorfun bark""",NA,"""text""","""reverse""",-99,"""generic""",-99,"""Kweps""","""int2""",NA
2,703,"""critical""","""kweps""","""chew on tunkel bark""","""come on land to find mates""","""build permanent structures called fendles""",17,"1","""sweet and tunkel trees taste sour. Kweps hunt in packs and have highly idiosyncratic food ""","""chew on xorfun bark""",NA,"""text""","""reverse""",-99,"""generic""",-99,"""Kweps""","""int2""",NA
2,410,"""critical""","""kweps""","""chew on tunkel bark""","""come on land to find mates""","""build permanent structures called fendles""",17,"2","""preferences and behaviors. When they go hunting at night, kweps chew on the bark of xorfun and ""","""chew on xorfun bark""",NA,"""text""","""reverse""",-99,"""generic""",-99,"""Kweps""","""int2""",NA
2,1972,"""critical""","""kweps""","""chew on tunkel bark""","""chew on tunkel bark""","""chew on xorfun bark""",17,"null","""""","""chew on xorfun bark""",NA,"""query""","""same""",0.57,"""generic""",0.44,"""Kweps""","""int2""",NA
2,726,"""critical""","""kweps""","""chew on tunkel bark""","""chew on tunkel bark""","""chew on xorfun bark""",17,"3","""howl towards the sky.""","""chew on xorfun bark""",NA,"""text""","""same""",0.57,"""generic""",0.44,"""Kweps""","""int2""",NA
3,5263,"""filler""","""NA""","""NA""",NA,NA,0,"0","""Dax is a lot like Earth.  It has seven continents in similar places, but instead of Africa, Europe, Asia, Australia, Antarctica and North ""","""NA""",NA,"""text""",NA,-99,"""generic""",-99,"""An introduction to Dax""","""uninterrupted""",NA
3,4880,"""filler""","""NA""","""NA""",NA,NA,0,"1",""" and South America, the continents are called  Aga,  Benli, Caro, Dodi, Ente, Fale, and Gomi. Its climate is a lot like Earth&quotechars, too. But the""","""NA""",NA,"""text""",NA,-99,"""generic""",-99,"""An introduction to Dax""","""uninterrupted""",NA
3,1406,"""filler""","""NA""","""NA""",NA,NA,0,"2","""  plants and animals of Dax are quite different.""","""NA""",NA,"""text""",NA,-99,"""generic""",-99,"""An introduction to Dax""","""uninterrupted""",NA
3,3200,"""filler""","""plovs""","""are attacked by other creatures""",NA,NA,1,"0","""No plovs live on the continent of Aga; instead, in they all live on""","""live in the continent of Aga""","""both""","""text""",NA,-99,"""none""",-99,"""Plovs""","""interrupted""","""before"""
3,3656,"""filler""","""plovs""","""are attacked by other creatures""",NA,NA,1,"1","""Caro. Since they have their own territory, they are never attacked by other, larger creatures and ""","""live in the continent of Aga""","""both""","""text""",NA,-99,"""none""",-99,"""Plovs""","""interrupted""","""before"""
3,3384,"""filler""","""plovs""","""are attacked by other creatures""",NA,NA,1,"2","""live happily near water. Their herds are large but have a single leader. The leaders are the oldest female ""","""live in the continent of Aga""","""both""","""text""",NA,-99,"""none""",-99,"""Plovs""","""interrupted""","""before"""
3,5039,"""filler""","""plovs""","""are attacked by other creatures""","""are attacked by other creatures""","""live in the continent of Aga""",1,"null","""""","""live in the continent of Aga""","""both""","""query""","""reverse""",0.41,"""none""",0.55,"""Plovs""","""interrupted""","""before"""
3,1353,"""filler""","""plovs""","""are attacked by other creatures""","""are attacked by other creatures""","""live in the continent of Aga""",1,"3","""and the oldest male.""","""live in the continent of Aga""","""both""","""text""","""reverse""",0.41,"""none""",0.55,"""Plovs""","""interrupted""","""before"""
3,3249,"""filler""","""yomis""","""fly towards the mountains in search of food""","""are attacked by other creatures""","""live in the continent of Aga""",2,"0","""Yomis are small, fast insect-like creatures. They all live in the ""","""live in the borderland woodlands""","""both""","""text""","""reverse""",-99,"""all""",-99,"""Yomis""","""interrupted""","""after"""
3,3942,"""filler""","""yomis""","""fly towards the mountains in search of food""","""are attacked by other creatures""","""live in the continent of Aga""",2,"1","""borderland woodlands and they all fly towards the mountains in search of food. Yomis have a single  ""","""live in the borderland woodlands""","""both""","""text""","""reverse""",-99,"""all""",-99,"""Yomis""","""interrupted""","""after"""
3,3617,"""filler""","""yomis""","""fly towards the mountains in search of food""","""are attacked by other creatures""","""live in the continent of Aga""",2,"2","""mouthpart for grabbing food, usually from yellow flowers. Their mouthparts are long and ""","""live in the borderland woodlands""","""both""","""text""","""reverse""",-99,"""all""",-99,"""Yomis""","""interrupted""","""after"""
3,9800,"""filler""","""yomis""","""fly towards the mountains in search of food""","""fly towards the mountains in search of food""","""live in the borderland woodlands""",2,"null","""""","""live in the borderland woodlands""","""both""","""query""","""same""",1,"""all""",0.62,"""Yomis""","""interrupted""","""after"""
3,9248,"""filler""","""yomis""","""fly towards the mountains in search of food""","""fly towards the mountains in search of food""","""live in the borderland woodlands""",2,"3","""short, which makes them suited for different types of food.""","""live in the borderland woodlands""","""both""","""text""","""same""",1,"""all""",0.62,"""Yomis""","""interrupted""","""after"""
3,7345,"""critical""","""vimble queens""","""hibernate in the abandoned burrows of other animals""","""fly towards the mountains in search of food""","""live in the borderland woodlands""",3,"0","""Finding a safe place to hibernate is difficult on Dax, but fallen logs and burrows abandoned by other animals are good options. ""","""hibernate in fallen logs""",NA,"""text""","""same""",-99,"""generic""",-99,"""Vimbles""","""before""",NA
3,5777,"""critical""","""vimble queens""","""hibernate in the abandoned burrows of other animals""","""fly towards the mountains in search of food""","""live in the borderland woodlands""",3,"1","""Vimbles are social insects that live in colonies of up to a thousand individuals. Vimbles live for a year or less. They have a single ""","""hibernate in fallen logs""",NA,"""text""","""same""",-99,"""generic""",-99,"""Vimbles""","""before""",NA
3,3959,"""critical""","""vimble queens""","""hibernate in the abandoned burrows of other animals""","""fly towards the mountains in search of food""","""live in the borderland woodlands""",3,"2","""queen, who must find somewhere to hibernate over the winter before  starting a new colony. Vimble queens hibernate in fallen logs""","""hibernate in fallen logs""",NA,"""text""","""same""",-99,"""generic""",-99,"""Vimbles""","""before""",NA
3,1262,"""critical""","""vimble queens""","""hibernate in the abandoned burrows of other animals""","""fly towards the mountains in search of food""","""live in the borderland woodlands""",3,"3","""and give birth twice a year.""","""hibernate in fallen logs""",NA,"""text""","""same""",-99,"""generic""",-99,"""Vimbles""","""before""",NA
3,14793,"""critical""","""vimble queens""","""hibernate in the abandoned burrows of other animals""","""hibernate in the abandoned burrows of other animals""","""hibernate in fallen logs""",3,"4","""""","""hibernate in fallen logs""",NA,"""query""","""same""",0.17,"""generic""",0.83,"""Vimbles""","""before""",NA
3,5279,"""critical""","""fengnor mated pairs""","""build nests in droops""","""hibernate in the abandoned burrows of other animals""","""hibernate in fallen logs""",4,"0","""Fengnors are smaller, nocturnal creatures that live in forests primarily with two kinds of trees: gluers and droops. They have ""","""build nests in gluers""",NA,"""text""","""same""",-99,"""generic""",-99,"""Fengnors""","""after""",NA
3,3959,"""critical""","""fengnor mated pairs""","""build nests in droops""","""hibernate in the abandoned burrows of other animals""","""hibernate in fallen logs""",4,"1","""complex mating habits. They mate for life and the males often bring twigs and leaves to the females ""","""build nests in gluers""",NA,"""text""","""same""",-99,"""generic""",-99,"""Fengnors""","""after""",NA
3,3657,"""critical""","""fengnor mated pairs""","""build nests in droops""","""hibernate in the abandoned burrows of other animals""","""hibernate in fallen logs""",4,"2","""during courtship. The mated pairs use these twigs and leaves to build their quite elaborate nests in gluers and""","""build nests in gluers""",NA,"""text""","""same""",-99,"""generic""",-99,"""Fengnors""","""after""",NA
3,2321,"""critical""","""fengnor mated pairs""","""build nests in droops""","""hibernate in the abandoned burrows of other animals""","""hibernate in fallen logs""",4,"3","""and and store tree-bark in them for safe keeping.""","""build nests in gluers""",NA,"""text""","""same""",-99,"""generic""",-99,"""Fengnors""","""after""",NA
3,4767,"""critical""","""fengnor mated pairs""","""build nests in droops""","""build nests in droops""","""build nests in gluers""",4,"4","""""","""build nests in gluers""",NA,"""query""","""same""",0.48,"""generic""",0.76,"""Fengnors""","""after""",NA
3,6790,"""critical""","""kweps""","""chew on tunkel bark""","""build nests in droops""","""build nests in gluers""",5,"0","""Kweps live in forests made up of xorfun trees and tunkel trees. The bark  of xorfun trees tastes very ""","""chew on xorfun bark""",NA,"""text""","""same""",-99,"""generic""",-99,"""Kweps""","""before""",NA
3,3297,"""critical""","""kweps""","""chew on tunkel bark""","""build nests in droops""","""build nests in gluers""",5,"1","""sweet and tunkel trees taste sour. Kweps hunt in packs and have highly idiosyncratic food ""","""chew on xorfun bark""",NA,"""text""","""same""",-99,"""generic""",-99,"""Kweps""","""before""",NA
3,3624,"""critical""","""kweps""","""chew on tunkel bark""","""build nests in droops""","""build nests in gluers""",5,"2","""preferences and behaviors. When they go hunting at night, kweps chew on the bark of xorfun""","""chew on xorfun bark""",NA,"""text""","""same""",-99,"""generic""",-99,"""Kweps""","""before""",NA
3,1057,"""critical""","""kweps""","""chew on tunkel bark""","""build nests in droops""","""build nests in gluers""",5,"3","""and jump up and down in circles.""","""chew on xorfun bark""",NA,"""text""","""same""",-99,"""generic""",-99,"""Kweps""","""before""",NA
3,3631,"""critical""","""kweps""","""chew on tunkel bark""","""chew on tunkel bark""","""chew on xorfun bark""",5,"4","""""","""chew on xorfun bark""",NA,"""query""","""same""",0.48,"""generic""",0.65,"""Kweps""","""before""",NA
3,5609,"""critical""","""oller families""","""carry their young in trullets""","""chew on tunkel bark""","""chew on xorfun bark""",6,"0","""Ollers spend most of their lives in water, but occasionally come on land to gather berries. On land, one can find tools made by""","""carry their young in guklags""",NA,"""text""","""same""",-99,"""generic""",-99,"""Ollers""","""int2""",NA
3,5478,"""critical""","""oller families""","""carry their young in trullets""","""chew on tunkel bark""","""chew on xorfun bark""",6,"1","""other animals, such as guklags and trullets, but ollers are very wary of trying new things. Baby ollers find it very exciting to be on land,""","""carry their young in guklags""",NA,"""text""","""same""",-99,"""generic""",-99,"""Ollers""","""int2""",NA
3,4743,"""critical""","""oller families""","""carry their young in trullets""","""chew on tunkel bark""","""chew on xorfun bark""",6,"2",""" though they have trouble walking and need to be carried by family members. While on land, ollers carry their young in guklags and ""","""carry their young in guklags""",NA,"""text""","""same""",-99,"""generic""",-99,"""Ollers""","""int2""",NA
3,4536,"""critical""","""oller families""","""carry their young in trullets""","""carry their young in trullets""","""carry their young in guklags""",6,"null","""""","""carry their young in guklags""",NA,"""query""","""reverse""",0.52,"""generic""",0.45,"""Ollers""","""int2""",NA
3,1200,"""critical""","""oller families""","""carry their young in trullets""","""carry their young in trullets""","""carry their young in guklags""",6,"3","""use sticks for balance.""","""carry their young in guklags""",NA,"""text""","""reverse""",0.52,"""generic""",0.45,"""Ollers""","""int2""",NA
3,5367,"""filler""","""aliens""","""admire Wint""","""carry their young in trullets""","""carry their young in guklags""",7,"0","""Wint lived a long time ago in the mountains.  But all aliens remember Wint and admire him because he ""","""remember Wint""","""interruption""","""text""","""reverse""",-99,"""all""",-99,"""Wint of the Mountains""","""uninterrupted""","""after"""
3,4617,"""filler""","""aliens""","""admire Wint""","""carry their young in trullets""","""carry their young in guklags""",7,"1","""was the one that found the lost city of Baff. While he wasn&quotechart exploring, Wint stayed in his village in the mountains. He was a hunter and ""","""remember Wint""","""interruption""","""text""","""reverse""",-99,"""all""",-99,"""Wint of the Mountains""","""uninterrupted""","""after"""
3,1143,"""filler""","""aliens""","""admire Wint""","""carry their young in trullets""","""carry their young in guklags""",7,"2","""a blacksmith.""","""remember Wint""","""interruption""","""text""","""reverse""",-99,"""all""",-99,"""Wint of the Mountains""","""uninterrupted""","""after"""
3,5890,"""filler""","""aliens""","""admire Wint""","""admire Wint""","""remember Wint""",7,"3","""""","""remember Wint""","""interruption""","""query""","""same""",0.69,"""all""",0.69,"""Wint of the Mountains""","""uninterrupted""","""after"""
3,3550,"""critical""","""farmers in the springtime""","""plant soroneeks""","""admire Wint""","""remember Wint""",8,"0","""The soil on the continent of Aga is very fertile, and the aliens have learned to grow many crops.""","""plant fujusi""",NA,"""text""","""same""",-99,"""generic""",-99,"""Agriculture""","""int2""",NA
3,2833,"""critical""","""farmers in the springtime""","""plant soroneeks""","""admire Wint""","""remember Wint""",8,"1","""Two crops called fujusi and sornoeeks are the most popular, but they are difficult to grow. However, ""","""plant fujusi""",NA,"""text""","""same""",-99,"""generic""",-99,"""Agriculture""","""int2""",NA
3,6023,"""critical""","""farmers in the springtime""","""plant soroneeks""","""admire Wint""","""remember Wint""",8,"2","""farmers only grow one type of crop to increase their profits when selling. During the springtime, the aliens flood their fields in order to plant fujusi and""","""plant fujusi""",NA,"""text""","""same""",-99,"""generic""",-99,"""Agriculture""","""int2""",NA
3,5513,"""critical""","""farmers in the springtime""","""plant soroneeks""","""plant soroneeks""","""plant fujusi""",8,"null","""""","""plant fujusi""",NA,"""query""","""same""",0.33,"""generic""",0.73,"""Agriculture""","""int2""",NA
3,1351,"""critical""","""farmers in the springtime""","""plant soroneeks""","""plant soroneeks""","""plant fujusi""",8,"3","""in the summer watch their fields carefully.""","""plant fujusi""",NA,"""text""","""same""",0.33,"""generic""",0.73,"""Agriculture""","""int2""",NA
3,2919,"""filler""","""blins""","""fly""","""plant soroneeks""","""plant fujusi""",9,"0","""Blins are small creatures. They all have hollow bones and fly. They often fly together in flocks of up""","""have hollow bones""","""full""","""text""","""same""",-99,"""all""",-99,"""Blins""","""uninterrupted""",NA
3,2888,"""filler""","""blins""","""fly""","""plant soroneeks""","""plant fujusi""",9,"1",""" to a hundred. They have shiny blue feathers when they are young and ""","""have hollow bones""","""full""","""text""","""same""",-99,"""all""",-99,"""Blins""","""uninterrupted""",NA
3,1041,"""filler""","""blins""","""fly""","""plant soroneeks""","""plant fujusi""",9,"2","""no feathers when they grow old.""","""have hollow bones""","""full""","""text""","""same""",-99,"""all""",-99,"""Blins""","""uninterrupted""",NA
3,6823,"""filler""","""blins""","""fly""","""fly""","""have hollow bones""",9,"3","""""","""have hollow bones""","""full""","""query""","""reverse""",1,"""all""",1,"""Blins""","""uninterrupted""",NA
3,16471,"""critical""","""mooks""","""have territories at the bottom of deep canyons""","""fly""","""have hollow bones""",10,"0","""Mooks are ferocious creatures that live on the continent of Benli. Benli has dramatic elevation changes ""","""have territories at the tops of tall mountains""",NA,"""text""","""reverse""",-99,"""generic""",-99,"""Mooks""","""int4""",NA
3,3992,"""critical""","""mooks""","""have territories at the bottom of deep canyons""","""fly""","""have hollow bones""",10,"1","""unlike any other continent, with tall mountains and deep canyons. Animals find terrorities in ""","""have territories at the tops of tall mountains""",NA,"""text""","""reverse""",-99,"""generic""",-99,"""Mooks""","""int4""",NA
